timestamp,timestamp_sample,ref_timestamp,ref_lat,ref_lon,x,y,z,delta_xy[0],delta_xy[1],delta_z,vx,vy,vz,z_deriv,delta_vxy[0],delta_vxy[1],delta_vz,ax,ay,az,heading,delta_heading,ref_alt,dist_bottom,eph,epv,evh,evv,vxy_max,vz_max,hagl_min,hagl_max,xy_valid,z_valid,v_xy_valid,v_z_valid,xy_reset_counter,z_reset_counter,vxy_reset_counter,vz_reset_counter,heading_reset_counter,heading_good_for_control,xy_global,z_global,dist_bottom_valid,dist_bottom_sensor_bitfield,dead_reckoning
564939745,564939022,68467874,59.396201899999994,24.6605964,2.334829,-1.2806171,-2.560867,-0.021752972,-0.012412676,-0.03908609,-0.02986131,0.020409537,-0.04972894,-0.030435989,-0.0076688584,-0.002126247,-0.016722856,0.0030794528,0.012666201,-0.02461122,-0.16209489,-0.0043945326,28.056198,0.1,0.18697831,0.18481264,0.1109973,0.082552195,inf,inf,inf,inf,1,1,1,1,2,2,2,2,2,0,1,1,0,0,0
564949695,564948907,68467874,59.396201899999994,24.6605964,2.3345697,-1.2804551,-2.561383,-0.021752972,-0.012412676,-0.03908609,-0.029860971,0.02029393,-0.050320126,-0.0312477,-0.0076688584,-0.002126247,-0.016722856,-0.0019477244,-0.021565272,-0.07525391,-0.1620942,-0.0043945326,28.056198,0.1,0.18771441,0.18538594,0.111427665,0.08275945,inf,inf,inf,inf,1,1,1,1,2,2,2,2,2,0,1,1,0,0,0
564959589,564958792,68467874,59.396201899999994,24.6605964,2.33431,-1.280294,-2.5619066,-0.021752972,-0.012412676,-0.03908609,-0.029720364,0.020254318,-0.050899614,-0.032046273,-0.0076688584,-0.002126247,-0.016722856,0.027438005,0.006855619,-0.04786079,-0.16210161,-0.0043945326,28.056198,0.1,0.18845554,0.18596177,0.11185898,0.082966775,inf,inf,inf,inf,1,1,1,1,2,2,2,2,2,0,1,1,0,0,0
564969671,564968678,68467874,59.396201899999994,24.6605964,2.3340514,-1.2801332,-2.562435,-0.021752972,-0.012412676,-0.03908609,-0.0301157,0.019850938,-0.051169034,-0.03253331,-0.0076688584,-0.002126247,-0.016722856,-0.117495336,-0.12902474,-0.011956921,-0.16220391,-0.0043945326,28.056198,0.1,0.18920168,0.18654013,0.1122922,0.083174184,inf,inf,inf,inf,1,1,1,1,2,2,2,2,2,0,1,1,0,0,0
564980270,564978562,68467874,59.396201899999994,24.6605964,2.3338132,-1.2799405,-2.562736,-0.021752972,-0.012412676,-0.03908609,-0.029493874,0.020127272,-0.05114228,-0.03248484,-0.0076688584,-0.002126247,-0.016722856,0.12508754,-0.026474193,-0.069101654,-0.16209298,-0.0043945326,28.056198,0.1,0.18085152,0.1804487,0.1073638,0.080884226,inf,inf,inf,inf,1,1,1,1,2,2,2,2,2,0,1,1,0,0,0
564989048,564988446,68467874,59.396201899999994,24.6605964,2.3335795,-1.2797468,-2.5630445,-0.021752972,-0.012412676,-0.03908609,-0.029004352,0.019453038,-0.05054642,-0.03187601,-0.0076688584,-0.002126247,-0.016722856,0.14026421,-0.2814229,0.06534828,-0.16173856,-0.0043945326,28.056198,0.1,0.18154521,0.18100186,0.107789725,0.08109084,inf,inf,inf,inf,1,1,1,1,2,2,2,2,2,0,1,1,0,0,0
564999082,564998331,68467874,59.396201899999994,24.6605964,2.3333457,-1.2795545,-2.5634882,-0.021752972,-0.012412676,-0.03908609,-0.030612031,0.02078339,-0.053077575,-0.034527384,-0.0076688584,-0.002126247,-0.016722856,-0.36371452,0.082070224,-0.30712572,-0.16171472,-0.0043945326,28.056198,0.1,0.18224382,0.18131377,0.10821607,0.08124506,inf,inf,inf,inf,1,1,1,1,2,2,2,2,2,0,1,1,0,0,0
565008875,565008216,68467874,59.396201899999994,24.6605964,2.333104,-1.2793647,-2.563945,-0.021752972,-0.012412676,-0.03908609,-0.029576702,0.019950425,-0.053298727,-0.034871392,-0.0076688584,-0.002126247,-0.016722856,0.057982426,0.008057674,-0.16107127,-0.16217427,-0.0043945326,28.056198,0.1,0.18294738,0.18187122,0.10864441,0.08145182,inf,inf,inf,inf,1,1,1,1,2,2,2,2,2,0,1,1,0,0,0
565018930,565018101,68467874,59.396201899999994,24.6605964,2.3328695,-1.2791787,-2.5644097,-0.021752972,-0.012412676,-0.03908609,-0.029467197,0.0196683,-0.05219917,-0.03389713,-0.0076688584,-0.002126247,-0.016722856,-0.065472946,-0.051236372,0.23591168,-0.16252607,-0.0043945326,28.056198,0.1,0.18365592,0.1824312,0.10907287,0.081658676,inf,inf,inf,inf,1,1,1,1,2,2,2,2,2,0,1,1,0,0,0
565029090,565027986,68467874,59.396201899999994,24.6605964,2.33263,-1.278984,-2.5648732,-0.021752972,-0.012412676,-0.03908609,-0.028468043,0.019855494,-0.05338903,-0.035214588,-0.0076688584,-0.002126247,-0.016722856,0.48805338,-0.35950005,-0.39340237,-0.16240081,-0.0043945326,28.056198,0.1,0.1843694,0.1829937,0.10950096,0.081865616,inf,inf,inf,inf,1,1,1,1,2,2,2,2,2,0,1,1,0,0,0
565038996,565037871,68467874,59.396201899999994,24.6605964,2.3323977,-1.2787966,-2.5653474,-0.021752972,-0.012412676,-0.03908609,-0.030240467,0.020665055,-0.05336037,-0.035315692,-0.0076688584,-0.002126247,-0.016722856,-0.3863606,0.17151779,0.060942855,-0.16199908,-0.0043945326,28.056198,0.1,0.18508787,0.18355872,0.10992945,0.08207263,inf,inf,inf,inf,1,1,1,1,2,2,2,2,2,0,1,1,0,0,0
565048878,565047755,68467874,59.396201899999994,24.6605964,2.3321576,-1.2786119,-2.5658243,-0.021752972,-0.012412676,-0.03908609,-0.029373754,0.019694714,-0.05295723,-0.035044346,-0.0076688584,-0.002126247,-0.016722856,0.010797688,0.038848244,0.15852025,-0.16185084,-0.0043945326,28.056198,0.1,0.18581134,0.18412626,0.11036003,0.08227971,inf,inf,inf,inf,1,1,1,1,2,2,2,2,2,0,1,1,0,0,0
565058841,565057640,68467874,59.396201899999994,24.6605964,2.3319159,-1.2784288,-2.5664248,-0.021752972,-0.012412676,-0.03908609,-0.03011879,0.020608984,-0.055389866,-0.037725434,-0.0076688584,-0.002126247,-0.016722856,-0.050426845,0.23848115,-0.23248649,-0.16206782,-0.0043945326,28.056198,0.1,0.18653983,0.18443969,0.11079099,0.082430564,inf,inf,inf,inf,1,1,1,1,2,2,2,2,2,0,1,1,0,0,0
565068626,565067525,68467874,59.396201899999994,24.6605964,2.3316743,-1.2782413,-2.5670304,-0.021752972,-0.012412676,-0.03908609,-0.029678902,0.01919965,-0.054297335,-0.03687815,-0.0076688584,-0.002126247,-0.016722856,-0.0359206,-0.2941252,0.07580332,-0.16234139,-0.0043945326,28.056198,0.1,0.18727332,0.18501148,0.111221656,0.08263777,inf,inf,inf,inf,1,1,1,1,2,2,2,2,2,0,1,1,0,0,0
565078035,565077410,68467874,59.396201899999994,24.6605964,2.331437,-1.2780578,-2.567641,-0.021752972,-0.012412676,-0.03908609,-0.028743993,0.019604435,-0.055734247,-0.038557123,-0.0076688584,-0.002126247,-0.016722856,0.08330309,-0.14467515,-0.04733308,-0.1623697,-0.0043945326,28.056198,0.1,0.18801184,0.1855858,0.11165305,0.08284516,inf,inf,inf,inf,1,1,1,1,2,2,2,2,2,0,1,1,0,0,0
565087877,565087295,68467874,59.396201899999994,24.6605964,2.3311982,-1.2778748,-2.5682466,-0.021752972,-0.012412676,-0.03908609,-0.029646765,0.019591581,-0.053704724,-0.03676655,-0.0076688584,-0.002126247,-0.016722856,-0.068405464,-0.07857945,0.27740613,-0.16214281,-0.0043945326,28.056198,0.1,0.1887554,0.18616265,0.11208249,0.08305264,inf,inf,inf,inf,1,1,1,1,2,2,2,2,2,0,1,1,0,0,0
565098820,565097179,68467874,59.396201899999994,24.6605964,2.3309178,-1.2776437,-2.5686238,-0.021752972,-0.012412676,-0.03908609,-0.028256908,0.02056678,-0.05630249,-0.039365225,-0.0076688584,-0.002126247,-0.016722856,0.118971534,0.41378343,-0.38741237,-0.16196266,-0.0043945326,28.056198,0.1,0.18046926,0.18010959,0.10719335,0.08077646,inf,inf,inf,inf,1,1,1,1,2,2,2,2,2,0,1,1,0,0,0
565107651,565107075,68467874,59.396201899999994,24.6605964,2.3306434,-1.2774096,-2.5690258,-0.021752972,-0.012412676,-0.03908609,-0.02880987,0.01984645,-0.056230064,-0.039300773,-0.0076688584,-0.002126247,-0.016722856,-0.07031176,0.05333552,0.046581656,-0.16202974,-0.0043945326,28.056198,0.1,0.18116075,0.1806614,0.10761822,0.08098309,inf,inf,inf,inf,1,1,1,1,2,2,2,2,2,0,1,1,0,0,0
565117833,565116952,68467874,59.396201899999994,24.6605964,2.330364,-1.2771811,-2.5694315,-0.021752972,-0.012412676,-0.03908609,-0.029750599,0.019488407,-0.056517858,-0.039603308,-0.0076688584,-0.002126247,-0.016722856,-0.15112981,-0.00658092,-0.08365138,-0.16227424,-0.0043945326,28.056198,0.1,0.18185718,0.18121573,0.10804337,0.08118986,inf,inf,inf,inf,1,1,1,1,2,2,2,2,2,0,1,1,0,0,0
565127747,565126836,68467874,59.396201899999994,24.6605964,2.3300834,-1.2769543,-2.5699403,-0.021752972,-0.012412676,-0.03908609,-0.0288905,0.01891509,-0.056836966,-0.040035594,-0.0076688584,-0.002126247,-0.016722856,0.060687535,-0.21411158,0.095009275,-0.16236883,-0.0043945326,28.056198,0.1,0.18255855,0.18152793,0.10847342,0.081344016,inf,inf,inf,inf,1,1,1,1,2,2,2,2,2,0,1,1,0,0,0
565137520,565136719,68467874,59.396201899999994,24.6605964,2.3298032,-1.2767308,-2.5704453,-0.021752972,-0.012412676,-0.03908609,-0.02904108,0.019076342,-0.055838194,-0.039152212,-0.0076688584,-0.002126247,-0.016722856,0.087520994,-0.12456356,0.094482735,-0.16223253,-0.0043945326,28.056198,0.1,0.18326488,0.18208656,0.10889855,0.08155072,inf,inf,inf,inf,1,1,1,1,2,2,2,2,2,0,1,1,0,0,0
565147422,565146603,68467874,59.396201899999994,24.6605964,2.329526,-1.2765065,-2.5709465,-0.021752972,-0.012412676,-0.03908609,-0.029408624,0.01981618,-0.055997666,-0.039429147,-0.0076688584,-0.002126247,-0.016722856,-0.14435056,0.043495316,-0.13918462,-0.16208139,-0.0043945326,28.056198,0.1,0.18397619,0.1826477,0.10932539,0.08175769,inf,inf,inf,inf,1,1,1,1,2,2,2,2,2,0,1,1,0,0,0
565157461,565156488,68467874,59.396201899999994,24.6605964,2.3292465,-1.2762848,-2.5714638,-0.021752972,-0.012412676,-0.03908609,-0.029106649,0.019870628,-0.057941407,-0.041492295,-0.0076688584,-0.002126247,-0.016722856,0.049150806,0.13804214,-0.21184437,-0.16210543,-0.0043945326,28.056198,0.1,0.18469244,0.18321137,0.10976024,0.08196454,inf,inf,inf,inf,1,1,1,1,2,2,2,2,2,0,1,1,0,0,0
565167008,565166373,68467874,59.396201899999994,24.6605964,2.3289673,-1.276064,-2.5719972,-0.021752972,-0.012412676,-0.03908609,-0.029866338,0.020048603,-0.05819387,-0.04186598,-0.0076688584,-0.002126247,-0.016722856,-0.13053769,0.14129862,0.032770462,-0.16225539,-0.0043945326,28.056198,0.1,0.18541373,0.18377754,0.11018526,0.0821717,inf,inf,inf,inf,1,1,1,1,2,2,2,2,2,0,1,1,0,0,0
565176995,565176258,68467874,59.396201899999994,24.6605964,2.3286903,-1.2758471,-2.5725312,-0.021752972,-0.012412676,-0.03908609,-0.028433932,0.018806344,-0.058097277,-0.0418923,-0.0076688584,-0.002126247,-0.016722856,0.13475333,-0.12588376,0.00048737662,-0.16233031,-0.0043945326,28.056198,0.1,0.18614,0.18434626,0.110620156,0.08237897,inf,inf,inf,inf,1,1,1,1,2,2,2,2,2,0,1,1,0,0,0
565186884,565186143,68467874,59.396201899999994,24.6605964,2.3284144,-1.2756354,-2.5731933,-0.021752972,-0.012412676,-0.03908609,-0.02938792,0.018766068,-0.05845739,-0.04250682,-0.0076688584,-0.002126247,-0.016722856,-0.061405677,-0.0888536,-0.07602694,-0.16226587,-0.0043945326,28.056198,0.1,0.1868713,0.18465994,0.111042805,0.08252954,inf,inf,inf,inf,1,1,1,1,2,2,2,2,2,0,1,1,0,0,0
565196615,565196028,68467874,59.396201899999994,24.6605964,2.3281372,-1.2754227,-2.573862,-0.021752972,-0.012412676,-0.03908609,-0.029038742,0.019108353,-0.05890117,-0.043200836,-0.0076688584,-0.002126247,-0.016722856,0.02494108,-0.067390986,0.045888707,-0.16218655,-0.0043945326,28.056198,0.1,0.1876076,0.18523291,0.11148183,0.082736894,inf,inf,inf,inf,1,1,1,1,2,2,2,2,2,0,1,1,0,0,0
565206617,565205926,68467874,59.396201899999994,24.6605964,2.3278584,-1.2752115,-2.5745332,-0.021752972,-0.012412676,-0.03908609,-0.0298742,0.019320106,-0.059204713,-0.043750655,-0.0076688584,-0.002126247,-0.016722856,-0.12775439,0.049508933,-0.012469367,-0.16218908,-0.0043945326,28.056198,0.1,0.18834895,0.18580839,0.11191308,0.08294422,inf,inf,inf,inf,1,1,1,1,2,2,2,2,2,0,1,1,0,0,0
565216463,565215797,68467874,59.396201899999994,24.6605964,2.3275836,-1.2749993,-2.5752044,-0.021752972,-0.012412676,-0.03908609,-0.028508592,0.019666117,-0.059849568,-0.04463772,-0.0076688584,-0.002126247,-0.016722856,0.077218294,0.060897503,-0.07403878,-0.16226575,-0.0043945326,28.056198,0.1,0.18909536,0.1863864,0.1123452,0.08315159,inf,inf,inf,inf,1,1,1,1,2,2,2,2,2,0,1,1,0,0,0
565226481,565225688,68467874,59.396201899999994,24.6605964,2.32731,-1.2747872,-2.5758777,-0.021752972,-0.012412676,-0.03908609,-0.028937262,0.019442197,-0.05983876,-0.044865217,-0.0076688584,-0.002126247,-0.016722856,-0.012073745,0.00015056285,0.015878707,-0.16229485,-0.0043945326,28.056198,0.1,0.18984681,0.18696696,0.11277827,0.08335923,inf,inf,inf,inf,1,1,1,1,2,2,2,2,2,0,1,1,0,0,0
565236329,565235567,68467874,59.396201899999994,24.6605964,2.327032,-1.2745765,-2.5765538,-0.021752972,-0.012412676,-0.03908609,-0.029646972,0.019942282,-0.06096052,-0.04622144,-0.0076688584,-0.002126247,-0.016722856,-0.07187301,0.13062151,-0.13350855,-0.1622531,-0.0043945326,28.056198,0.1,0.19060333,0.18755002,0.113208495,0.083566844,inf,inf,inf,inf,1,1,1,1,2,2,2,2,2,0,1,1,0,0,0
565246239,565245457,68467874,59.396201899999994,24.6605964,2.326755,-1.2743692,-2.5772412,-0.021752972,-0.012412676,-0.03908609,-0.028650645,0.01946402,-0.061913706,-0.047405332,-0.0076688584,-0.002126247,-0.016722856,0.13463484,0.1031477,-0.08556017,-0.1622061,-0.0043945326,28.056198,0.1,0.19136488,0.18813562,0.11364206,0.083774455,inf,inf,inf,inf,1,1,1,1,2,2,2,2,2,0,1,1,0,0,0
565256329,565255336,68467874,59.396201899999994,24.6605964,2.3264797,-1.274163,-2.578047,-0.021752972,-0.012412676,-0.03908609,-0.029236924,0.019094849,-0.062540144,-0.048372686,-0.0076688584,-0.002126247,-0.016722856,0.0050320593,-0.04387942,-0.007839876,-0.16223232,-0.0043945326,28.056198,0.1,0.19213153,0.18844998,0.11408215,0.08392072,inf,inf,inf,inf,1,1,1,1,2,2,2,2,2,0,1,1,0,0,0
565266455,565265222,68467874,59.396201899999994,24.6605964,2.3261702,-1.274017,-2.5785894,-0.021752972,-0.012412676,-0.03908609,-0.029140301,0.018717239,-0.06246597,-0.04835734,-0.0076688584,-0.002126247,-0.016722856,0.048563123,-0.053919807,0.0364402,-0.1623081,-0.0043945326,28.056198,0.1,0.18333255,0.18215862,0.10887437,0.08154992,inf,inf,inf,inf,1,1,1,1,2,2,2,2,2,0,1,1,0,0,0
565275653,565275106,68467874,59.396201899999994,24.6605964,2.3258646,-1.2738707,-2.5791328,-0.021752972,-0.012412676,-0.03908609,-0.029031092,0.018831275,-0.06264015,-0.048593815,-0.0076688584,-0.002126247,-0.016722856,-0.008835997,-0.04736181,-0.082738414,-0.16235296,-0.0043945326,28.056198,0.1,0.18404351,0.18271977,0.10930136,0.081756964,inf,inf,inf,inf,1,1,1,1,2,2,2,2,2,0,1,1,0,0,0
565285553,565284991,68467874,59.396201899999994,24.6605964,2.325558,-1.2737237,-2.5796783,-0.021752972,-0.012412676,-0.03908609,-0.029655242,0.019001892,-0.06219545,-0.048214693,-0.0076688584,-0.002126247,-0.016722856,-0.104978375,0.015192656,-0.01949215,-0.16229206,-0.0043945326,28.056198,0.1,0.18475945,0.18328343,0.10973025,0.08196387,inf,inf,inf,inf,1,1,1,1,2,2,2,2,2,0,1,1,0,0,0
565295544,565294876,68467874,59.396201899999994,24.6605964,2.325249,-1.2735729,-2.5802264,-0.021752972,-0.012412676,-0.03908609,-0.029339014,0.019402206,-0.06204986,-0.048137814,-0.0076688584,-0.002126247,-0.016722856,0.051356,0.005160492,0.05474291,-0.16219202,-0.0043945326,28.056198,0.1,0.1854804,0.18384962,0.11016012,0.08217092,inf,inf,inf,inf,1,1,1,1,2,2,2,2,2,0,1,1,0,0,0
565305575,565304761,68467874,59.396201899999994,24.6605964,2.324946,-1.2734249,-2.580777,-0.021752972,-0.012412676,-0.03908609,-0.029127043,0.019034378,-0.06239228,-0.048551973,-0.0076688584,-0.002126247,-0.016722856,-0.0279281,0.044570286,-0.07556947,-0.16219176,-0.0043945326,28.056198,0.1,0.18620634,0.18441832,0.110590845,0.08237795,inf,inf,inf,inf,1,1,1,1,2,2,2,2,2,0,1,1,0,0,0
565315807,565314646,68467874,59.396201899999994,24.6605964,2.3246417,-1.273279,-2.5813396,-0.021752972,-0.012412676,-0.03908609,-0.029516416,0.018518219,-0.063589044,-0.04982322,-0.0076688584,-0.002126247,-0.016722856,-0.04651803,-0.049333334,-0.078224584,-0.1622877,-0.0043945326,28.056198,0.1,0.1869373,0.18498957,0.11102116,0.08258521,inf,inf,inf,inf,1,1,1,1,2,2,2,2,2,0,1,1,0,0,0
565325502,565324530,68467874,59.396201899999994,24.6605964,2.3243377,-1.2731364,-2.582019,-0.021752972,-0.012412676,-0.03908609,-0.029101804,0.018024243,-0.063954964,-0.050376397,-0.0076688584,-0.002126247,-0.016722856,0.09812085,-0.10962124,-0.051099077,-0.16237499,-0.0043945326,28.056198,0.1,0.18767327,0.18530308,0.111451745,0.08273508,inf,inf,inf,inf,1,1,1,1,2,2,2,2,2,0,1,1,0,0,0
565335340,565334417,68467874,59.396201899999994,24.6605964,2.3240376,-1.2729939,-2.5826972,-0.021752972,-0.012412676,-0.03908609,-0.029169174,0.018527593,-0.06340881,-0.050015204,-0.0076688584,-0.002126247,-0.016722856,-0.01633502,0.035425637,0.009991753,-0.162356,-0.0043945326,28.056198,0.1,0.18841428,0.18587856,0.1118861,0.08294236,inf,inf,inf,inf,1,1,1,1,2,2,2,2,2,0,1,1,0,0,0
565345377,565344300,68467874,59.396201899999994,24.6605964,2.323735,-1.2728485,-2.5833757,-0.021752972,-0.012412676,-0.03908609,-0.029626388,0.018477997,-0.06362884,-0.050418023,-0.0076688584,-0.002126247,-0.016722856,-0.019928997,-0.025716804,0.045480322,-0.16227175,-0.0043945326,28.056198,0.1,0.18916032,0.18645656,0.112321325,0.08314986,inf,inf,inf,inf,1,1,1,1,2,2,2,2,2,0,1,1,0,0,0
565356484,565354185,68467874,59.396201899999994,24.6605964,2.3233964,-1.2726488,-2.5838878,-0.021752972,-0.012412676,-0.03908609,-0.029948244,0.018717429,-0.06498914,-0.051778305,-0.0076688584,-0.002126247,-0.016722856,-0.013832094,0.08027222,-0.11977555,-0.1622135,-0.0043945326,28.056198,0.1,0.18081535,0.18037385,0.10739161,0.080863014,inf,inf,inf,inf,1,1,1,1,2,2,2,2,2,0,1,1,0,0,0
565365414,565364070,68467874,59.396201899999994,24.6605964,2.323066,-1.2724497,-2.5844164,-0.021752972,-0.012412676,-0.03908609,-0.029040793,0.018669127,-0.06616075,-0.052955516,-0.0076688584,-0.002126247,-0.016722856,0.0064474004,0.04233333,-0.104848936,-0.16224816,-0.0043945326,28.056198,0.1,0.18150893,0.1809267,0.10781602,0.08106964,inf,inf,inf,inf,1,1,1,1,2,2,2,2,2,0,1,1,0,0,0
565375571,565373954,68467874,59.396201899999994,24.6605964,2.322741,-1.2722527,-2.5849514,-0.021752972,-0.012412676,-0.03908609,-0.028703675,0.018575383,-0.065666325,-0.052472092,-0.0076688584,-0.002126247,-0.016722856,0.036682267,0.031543553,0.030618358,-0.16232346,-0.0043945326,28.056198,0.1,0.18220745,0.18148206,0.108242616,0.08127636,inf,inf,inf,inf,1,1,1,1,2,2,2,2,2,0,1,1,0,0,0
565385511,565383843,68467874,59.396201899999994,24.6605964,2.3224154,-1.2720586,-2.5855918,-0.021752972,-0.012412676,-0.03908609,-0.030149877,0.018405719,-0.065773696,-0.052699573,-0.0076688584,-0.002126247,-0.016722856,-0.2660416,0.05170254,-0.0031525262,-0.16238452,-0.0043945326,28.056198,0.1,0.18291093,0.18179421,0.10866823,0.081430055,inf,inf,inf,inf,1,1,1,1,2,2,2,2,2,0,1,1,0,0,0
565395558,565393725,68467874,59.396201899999994,24.6605964,2.3220887,-1.2718675,-2.5862408,-0.021752972,-0.012412676,-0.03908609,-0.028775165,0.018620122,-0.06711885,-0.05416528,-0.0076688584,-0.002126247,-0.016722856,0.12698522,0.17543165,-0.09652922,-0.16237485,-0.0043945326,28.056198,0.1,0.18361934,0.18235387,0.109094605,0.08163693,inf,inf,inf,inf,1,1,1,1,2,2,2,2,2,0,1,1,0,0,0
565405614,565403609,68467874,59.396201899999994,24.6605964,2.3217666,-1.2716758,-2.5869002,-0.021752972,-0.012412676,-0.03908609,-0.029136164,0.018506415,-0.06778316,-0.054950535,-0.0076688584,-0.002126247,-0.016722856,0.04319681,0.085554324,-0.06421749,-0.162337,-0.0043945326,28.056198,0.1,0.18433274,0.18291603,0.10952373,0.081843875,inf,inf,inf,inf,1,1,1,1,2,2,2,2,2,0,1,1,0,0,0
565416017,565413496,68467874,59.396201899999994,24.6605964,2.3214455,-1.2714859,-2.5875647,-0.021752972,-0.012412676,-0.03908609,-0.029620035,0.01818093,-0.06785586,-0.055144493,-0.0076688584,-0.002126247,-0.016722856,-0.10219126,0.00013617781,-0.0064845397,-0.16231123,-0.0043945326,28.056198,0.1,0.18505111,0.18348072,0.10995559,0.08205086,inf,inf,inf,inf,1,1,1,1,2,2,2,2,2,0,1,1,0,0,0
565425344,565423378,68467874,59.396201899999994,24.6605964,2.3211217,-1.2712927,-2.588233,-0.021752972,-0.012412676,-0.03908609,-0.029414048,0.018429352,-0.06880155,-0.05621173,-0.0076688584,-0.002126247,-0.016722856,0.10193212,-0.14145468,-0.1960394,-0.16230206,-0.0043945326,28.056198,0.1,0.1857745,0.18404794,0.11038625,0.082258016,inf,inf,inf,inf,1,1,1,1,2,2,2,2,2,0,1,1,0,0,0
565435005,565433264,68467874,59.396201899999994,24.6605964,2.3208022,-1.2711059,-2.5889194,-0.021752972,-0.012412676,-0.03908609,-0.029471125,0.018336235,-0.07094394,-0.058475867,-0.0076688584,-0.002126247,-0.016722856,-0.020583408,0.069177814,-0.22445673,-0.1623322,-0.0043945326,28.056198,0.1,0.1865029,0.18461768,0.11081365,0.08246518,inf,inf,inf,inf,1,1,1,1,2,2,2,2,2,0,1,1,0,0,0
565443734,565443148,68467874,59.396201899999994,24.6605964,2.3204818,-1.2709222,-2.5896204,-0.021752972,-0.012412676,-0.03908609,-0.029976664,0.017725628,-0.07165171,-0.059305545,-0.0076688584,-0.002126247,-0.016722856,-0.08032453,-0.027811266,-0.080957934,-0.1623908,-0.0043945326,28.056198,0.1,0.18723631,0.18518993,0.111244164,0.082672395,inf,inf,inf,inf,1,1,1,1,2,2,2,2,2,0,1,1,0,0,0
565453675,565453033,68467874,59.396201899999994,24.6605964,2.3201632,-1.2707369,-2.590439,-0.021752972,-0.012412676,-0.03908609,-0.02890028,0.017905189,-0.071467936,-0.0593585,-0.0076688584,-0.002126247,-0.016722856,0.17524138,-0.12422493,0.07203583,-0.16243039,-0.0043945326,28.056198,0.1,0.18797474,0.18550362,0.11167935,0.082822025,inf,inf,inf,inf,1,1,1,1,2,2,2,2,2,0,1,1,0,0,0
565463498,565462918,68467874,59.396201899999994,24.6605964,2.3198533,-1.2705535,-2.5912526,-0.021752972,-0.012412676,-0.03908609,-0.028902242,0.018091176,-0.07138426,-0.059506644,-0.0076688584,-0.002126247,-0.016722856,-0.010649224,-0.012385874,0.022429097,-0.16240928,-0.0043945326,28.056198,0.1,0.18871821,0.18608011,0.1121146,0.08302947,inf,inf,inf,inf,1,1,1,1,2,2,2,2,2,0,1,1,0,0,0
565473506,565472811,68467874,59.396201899999994,24.6605964,2.319542,-1.270371,-2.5920749,-0.021752972,-0.012412676,-0.03908609,-0.029780883,0.017662453,-0.073447846,-0.061797284,-0.0076688584,-0.002126247,-0.016722856,-0.17727786,-0.12585333,-0.18519484,-0.16237804,-0.0043945326,28.056198,0.1,0.18946674,0.18665914,0.112544835,0.083236955,inf,inf,inf,inf,1,1,1,1,2,2,2,2,2,0,1,1,0,0,0
565483812,565482689,68467874,59.396201899999994,24.6605964,2.3191533,-1.2702688,-2.5926409,-0.021752972,-0.012412676,-0.03908609,-0.029721435,0.018007845,-0.073621474,-0.061917864,-0.0076688584,-0.002126247,-0.016722856,0.023406262,-0.0833898,-0.077710055,-0.16232531,-0.0043945326,28.056198,0.1,0.18107365,0.18055516,0.10758163,0.080941014,inf,inf,inf,inf,1,1,1,1,2,2,2,2,2,0,1,1,0,0,0
565493399,565492572,68467874,59.396201899999994,24.6605964,2.318772,-1.2701664,-2.5932114,-0.021752972,-0.012412676,-0.03908609,-0.028363789,0.018024689,-0.07361897,-0.06186959,-0.0076688584,-0.002126247,-0.016722856,0.27917066,0.0021801244,-0.11945159,-0.16230711,-0.0043945326,28.056198,0.1,0.18176934,0.18110894,0.10801151,0.0811478,inf,inf,inf,inf,1,1,1,1,2,2,2,2,2,0,1,1,0,0,0
565503368,565502457,68467874,59.396201899999994,24.6605964,2.3184023,-1.2700654,-2.5937922,-0.021752972,-0.012412676,-0.03908609,-0.029725367,0.017717285,-0.074157566,-0.06236943,-0.0076688584,-0.002126247,-0.016722856,-0.3292102,0.019791191,-0.07559614,-0.16235161,-0.0043945326,28.056198,0.1,0.18246998,0.18166523,0.10843965,0.08135453,inf,inf,inf,inf,1,1,1,1,2,2,2,2,2,0,1,1,0,0,0
565513450,565512342,68467874,59.396201899999994,24.6605964,2.3180292,-1.2699687,-2.5945027,-0.021752972,-0.012412676,-0.03908609,-0.029127138,0.016857168,-0.07568925,-0.06398467,-0.0076688584,-0.002126247,-0.016722856,-0.031424582,-0.043588538,-0.118991755,-0.16242522,-0.0043945326,28.056198,0.1,0.18317558,0.18197756,0.108866826,0.08150804,inf,inf,inf,inf,1,1,1,1,2,2,2,2,2,0,1,1,0,0,0
565523128,565522228,68467874,59.396201899999994,24.6605964,2.3176517,-1.2698718,-2.5952232,-0.021752972,-0.012412676,-0.03908609,-0.029121617,0.016796984,-0.07600783,-0.06438824,-0.0076688584,-0.002126247,-0.016722856,0.33327812,-0.10300773,-0.04953001,-0.1624631,-0.0043945326,28.056198,0.1,0.18388616,0.18253812,0.10929741,0.08171496,inf,inf,inf,inf,1,1,1,1,2,2,2,2,2,0,1,1,0,0,0
565532996,565532111,68467874,59.396201899999994,24.6605964,2.3172927,-1.2697697,-2.595948,-0.021752972,-0.012412676,-0.03908609,-0.029440649,0.017359124,-0.07589323,-0.064359985,-0.0076688584,-0.002126247,-0.016722856,-0.3834823,-0.06565401,0.047559306,-0.16239382,-0.0043945326,28.056198,0.1,0.18460171,0.1831012,0.10973231,0.081921935,inf,inf,inf,inf,1,1,1,1,2,2,2,2,2,0,1,1,0,0,0
565542684,565541997,68467874,59.396201899999994,24.6605964,2.3169262,-1.2696676,-2.596678,-0.021752972,-0.012412676,-0.03908609,-0.028428053,0.01747634,-0.07719658,-0.06575096,-0.0076688584,-0.002126247,-0.016722856,0.3202399,0.046294857,-0.22927178,-0.16232277,-0.0043945326,28.056198,0.1,0.1853223,0.18366681,0.11016287,0.08212897,inf,inf,inf,inf,1,1,1,1,2,2,2,2,2,0,1,1,0,0,0
565552426,565551881,68467874,59.396201899999994,24.6605964,2.3165603,-1.2695662,-2.5974233,-0.021752972,-0.012412676,-0.03908609,-0.030481365,0.017422082,-0.07843105,-0.067074224,-0.0076688584,-0.002126247,-0.016722856,-0.08256397,0.0896176,-0.16073392,-0.16229442,-0.0043945326,28.056198,0.1,0.1860479,0.18423495,0.11059149,0.082336195,inf,inf,inf,inf,1,1,1,1,2,2,2,2,2,0,1,1,0,0,0
565562358,565561766,68467874,59.396201899999994,24.6605964,2.3162024,-1.2694687,-2.5981805,-0.021752972,-0.012412676,-0.03908609,-0.028605895,0.016537305,-0.07985396,-0.06858705,-0.0076688584,-0.002126247,-0.016722856,0.029909367,0.004772307,-0.23098926,-0.16235363,-0.0043945326,28.056198,0.1,0.1867785,0.1848056,0.11102113,0.08254342,inf,inf,inf,inf,1,1,1,1,2,2,2,2,2,0,1,1,0,0,0
565572282,565571651,68467874,59.396201899999994,24.6605964,2.3158457,-1.2693694,-2.5989487,-0.021752972,-0.012412676,-0.03908609,-0.029199835,0.01675928,-0.07963694,-0.06846101,-0.0076688584,-0.002126247,-0.016722856,0.101936206,-0.036994882,0.05194027,-0.16241418,-0.0043945326,28.056198,0.1,0.18751413,0.18537878,0.11145826,0.08275065,inf,inf,inf,inf,1,1,1,1,2,2,2,2,2,0,1,1,0,0,0
565582342,565581535,68467874,59.396201899999994,24.6605964,2.3154898,-1.2692668,-2.599828,-0.021752972,-0.012412676,-0.03908609,-0.030132586,0.016510274,-0.08002575,-0.069058165,-0.0076688584,-0.002126247,-0.016722856,-0.1880279,-0.19549374,-0.1714059,-0.1624271,-0.0043945326,28.056198,0.1,0.1882548,0.1856926,0.11188938,0.08290011,inf,inf,inf,inf,1,1,1,1,2,2,2,2,2,0,1,1,0,0,0
565592240,565591420,68467874,59.396201899999994,24.6605964,2.315138,-1.2691681,-2.6007178,-0.021752972,-0.012412676,-0.03908609,-0.028253868,0.016482266,-0.08180569,-0.0710423,-0.0076688584,-0.002126247,-0.016722856,0.23087394,-0.038397603,-0.24968222,-0.16237196,-0.0043945326,28.056198,0.1,0.18900053,0.18627001,0.112321526,0.083107635,inf,inf,inf,inf,1,1,1,1,2,2,2,2,2,0,1,1,0,0,0
565602477,565601305,68467874,59.396201899999994,24.6605964,2.3148105,-1.2689984,-2.6013768,-0.021752972,-0.012412676,-0.03908609,-0.029406112,0.016264638,-0.08206574,-0.07124911,-0.0076688584,-0.002126247,-0.016722856,-0.013646492,-0.07720695,-0.020775875,-0.16230395,-0.0043945326,28.056198,0.1,0.18067507,0.18020578,0.10739642,0.08082647,inf,inf,inf,inf,1,1,1,1,2,2,2,2,2,0,1,1,0,0,0
565612276,565611190,68467874,59.396201899999994,24.6605964,2.3144834,-1.2688305,-2.602036,-0.021752972,-0.012412676,-0.03908609,-0.029353347,0.016659416,-0.081380114,-0.07051718,-0.0076688584,-0.002126247,-0.016722856,-0.066884786,0.03839043,-0.024110695,-0.16229442,-0.0043945326,28.056198,0.1,0.18136838,0.18075812,0.107826285,0.08103319,inf,inf,inf,inf,1,1,1,1,2,2,2,2,2,0,1,1,0,0,0
565621870,565621075,68467874,59.396201899999994,24.6605964,2.3141572,-1.2686645,-2.602703,-0.021752972,-0.012412676,-0.03908609,-0.02884764,0.01621638,-0.08196125,-0.07105867,-0.0076688584,-0.002126247,-0.016722856,0.17230065,-0.04278237,-0.043057512,-0.16233462,-0.0043945326,28.056198,0.1,0.18206666,0.18131298,0.1082537,0.08123993,inf,inf,inf,inf,1,1,1,1,2,2,2,2,2,0,1,1,0,0,0
565631984,565630960,68467874,59.396201899999994,24.6605964,2.3138356,-1.2684996,-2.6033883,-0.021752972,-0.012412676,-0.03908609,-0.02909827,0.015891211,-0.083820656,-0.07288481,-0.0076688584,-0.002126247,-0.016722856,0.019903695,-0.17937826,-0.13353191,-0.16237839,-0.0043945326,28.056198,0.1,0.1827699,0.18187034,0.108680844,0.08144673,inf,inf,inf,inf,1,1,1,1,2,2,2,2,2,0,1,1,0,0,0
565641469,565640845,68467874,59.396201899999994,24.6605964,2.3135176,-1.268339,-2.6041863,-0.021752972,-0.012412676,-0.03908609,-0.02851198,0.016397687,-0.08438254,-0.07351986,-0.0076688584,-0.002126247,-0.016722856,0.0905138,0.089543544,-0.06787924,-0.16239768,-0.0043945326,28.056198,0.1,0.1834781,0.18218292,0.109112345,0.08160014,inf,inf,inf,inf,1,1,1,1,2,2,2,2,2,0,1,1,0,0,0
565651304,565650731,68467874,59.396201899999994,24.6605964,2.3132045,-1.2681767,-2.6049821,-0.021752972,-0.012412676,-0.03908609,-0.028483218,0.016420403,-0.0835568,-0.07276884,-0.0076688584,-0.002126247,-0.016722856,0.049994595,0.03962878,-0.036410116,-0.16237466,-0.0043945326,28.056198,0.1,0.1841913,0.18274459,0.10954356,0.081806935,inf,inf,inf,inf,1,1,1,1,2,2,2,2,2,0,1,1,0,0,0
565661418,565660614,68467874,59.396201899999994,24.6605964,2.3128889,-1.2680119,-2.6057873,-0.021752972,-0.012412676,-0.03908609,-0.029258542,0.016785737,-0.08563436,-0.07492256,-0.0076688584,-0.002126247,-0.016722856,-0.0065655587,0.017543117,-0.24691954,-0.16233169,-0.0043945326,28.056198,0.1,0.18490951,0.18330877,0.109977014,0.08201414,inf,inf,inf,inf,1,1,1,1,2,2,2,2,2,0,1,1,0,0,0
565671439,565670501,68467874,59.396201899999994,24.6605964,2.3125763,-1.2678454,-2.6066115,-0.021752972,-0.012412676,-0.03908609,-0.029435843,0.01719733,-0.08656611,-0.07593186,-0.0076688584,-0.002126247,-0.016722856,-0.20734978,0.076220326,-0.02256159,-0.16229938,-0.0043945326,28.056198,0.1,0.18563272,0.18387547,0.11040528,0.08222122,inf,inf,inf,inf,1,1,1,1,2,2,2,2,2,0,1,1,0,0,0
565681336,565680384,68467874,59.396201899999994,24.6605964,2.3122623,-1.2676834,-2.607438,-0.021752972,-0.012412676,-0.03908609,-0.028860698,0.016015416,-0.086525,-0.07596958,-0.0076688584,-0.002126247,-0.016722856,0.06393328,-0.10232225,-0.019556724,-0.16232514,-0.0043945326,28.056198,0.1,0.18636096,0.1844447,0.11083566,0.082428366,inf,inf,inf,inf,1,1,1,1,2,2,2,2,2,0,1,1,0,0,0
565691373,565690268,68467874,59.396201899999994,24.6605964,2.3119497,-1.2675222,-2.6082726,-0.021752972,-0.012412676,-0.03908609,-0.029331857,0.016175494,-0.087273665,-0.07679828,-0.0076688584,-0.002126247,-0.016722856,-0.01924521,-0.12396283,-0.05237828,-0.1623701,-0.0043945326,28.056198,0.1,0.18709421,0.18501645,0.11127177,0.08263579,inf,inf,inf,inf,1,1,1,1,2,2,2,2,2,0,1,1,0,0,0
565700957,565700153,68467874,59.396201899999994,24.6605964,2.3116424,-1.2673646,-2.609114,-0.021752972,-0.012412676,-0.03908609,-0.028735405,0.016826535,-0.08778602,-0.07739181,-0.0076688584,-0.002126247,-0.016722856,-0.04298432,0.19862278,-0.022781743,-0.16238193,-0.0043945326,28.056198,0.1,0.18783252,0.18559071,0.11170352,0.08284304,inf,inf,inf,inf,1,1,1,1,2,2,2,2,2,0,1,1,0,0,0
565711237,565710038,68467874,59.396201899999994,24.6605964,2.3113387,-1.267206,-2.6100805,-0.021752972,-0.012412676,-0.03908609,-0.028060323,0.016061287,-0.08806742,-0.07787783,-0.0076688584,-0.002126247,-0.016722856,0.15307453,-0.028817272,-0.017992083,-0.16237149,-0.0043945326,28.056198,0.1,0.18857588,0.18590473,0.11213343,0.08299226,inf,inf,inf,inf,1,1,1,1,2,2,2,2,2,0,1,1,0,0,0
565720897,565719923,68467874,59.396201899999994,24.6605964,2.3110356,-1.2670472,-2.6110473,-0.021752972,-0.012412676,-0.03908609,-0.029547565,0.016700575,-0.0889207,-0.07893142,-0.0076688584,-0.002126247,-0.016722856,-0.21518837,0.084431104,-0.18417154,-0.16233577,-0.0043945326,28.056198,0.1,0.18932426,0.18648323,0.112567306,0.0831998,inf,inf,inf,inf,1,1,1,1,2,2,2,2,2,0,1,1,0,0,0
565731318,565729814,68467874,59.396201899999994,24.6605964,2.310686,-1.2668461,-2.6117113,-0.021752972,-0.012412676,-0.03908609,-0.028064104,0.016078144,-0.08972106,-0.07960285,-0.0076688584,-0.002126247,-0.016722856,0.16227819,0.040762767,-0.1631611,-0.16233419,-0.0043945326,28.056198,0.1,0.18094751,0.1803966,0.107610054,0.080909155,inf,inf,inf,inf,1,1,1,1,2,2,2,2,2,0,1,1,0,0,0
565740350,565739693,68467874,59.396201899999994,24.6605964,2.3103428,-1.2666487,-2.6123972,-0.021752972,-0.012412676,-0.03908609,-0.028797919,0.01543275,-0.09127024,-0.08103296,-0.0076688584,-0.002126247,-0.016722856,-0.015064158,-0.14224099,-0.0842157,-0.16235425,-0.0043945326,28.056198,0.1,0.18164311,0.18094991,0.10803814,0.081115894,inf,inf,inf,inf,1,1,1,1,2,2,2,2,2,0,1,1,0,0,0
565751669,565749577,68467874,59.396201899999994,24.6605964,2.3099985,-1.2664527,-2.6130981,-0.021752972,-0.012412676,-0.03908609,-0.030092603,0.01626275,-0.09212057,-0.08177373,-0.0076688584,-0.002126247,-0.016722856,-0.3693159,0.04523716,-0.14467908,-0.16237748,-0.0043945326,28.056198,0.1,0.18234368,0.18150575,0.10846218,0.08132269,inf,inf,inf,inf,1,1,1,1,2,2,2,2,2,0,1,1,0,0,0
565760434,565759463,68467874,59.396201899999994,24.6605964,2.3096528,-1.2662598,-2.61382,-0.021752972,-0.012412676,-0.03908609,-0.028018909,0.015231974,-0.09309509,-0.082647815,-0.0076688584,-0.002126247,-0.016722856,0.30669326,-0.12050745,-0.009868558,-0.16242036,-0.0043945326,28.056198,0.1,0.18304919,0.18206412,0.108895436,0.081529476,inf,inf,inf,inf,1,1,1,1,2,2,2,2,2,0,1,1,0,0,0
565770355,565769347,68467874,59.396201899999994,24.6605964,2.3093157,-1.2660657,-2.6145575,-0.021752972,-0.012412676,-0.03908609,-0.029320465,0.015763754,-0.09407694,-0.08353804,-0.0076688584,-0.002126247,-0.016722856,-0.16763662,-0.15956806,-0.0027060295,-0.16242082,-0.0043945326,28.056198,0.1,0.18375969,0.182625,0.10932596,0.08173638,inf,inf,inf,inf,1,1,1,1,2,2,2,2,2,0,1,1,0,0,0
565781280,565779231,68467874,59.396201899999994,24.6605964,2.3089788,-1.2658721,-2.6154187,-0.021752972,-0.012412676,-0.03908609,-0.028586416,0.016844897,-0.095017545,-0.08451033,-0.0076688584,-0.002126247,-0.016722856,0.0362807,0.17186175,-0.19513333,-0.1623962,-0.0043945326,28.056198,0.1,0.1844752,0.18293801,0.1097551,0.08188899,inf,inf,inf,inf,1,1,1,1,2,2,2,2,2,0,1,1,0,0,0
565790396,565789131,68467874,59.396201899999994,24.6605964,2.3086448,-1.2656764,-2.616293,-0.021752972,-0.012412676,-0.03908609,-0.028779158,0.015998514,-0.09566059,-0.08518822,-0.0076688584,-0.002126247,-0.016722856,-0.01885207,-0.099671446,-0.07170411,-0.16239125,-0.0043945326,28.056198,0.1,0.18519573,0.18350317,0.11018564,0.082096025,inf,inf,inf,inf,1,1,1,1,2,2,2,2,2,0,1,1,0,0,0
565800083,565799003,68467874,59.396201899999994,24.6605964,2.3083155,-1.2654853,-2.6171775,-0.021752972,-0.012412676,-0.03908609,-0.028056923,0.015391878,-0.09688012,-0.086445615,-0.0076688584,-0.002126247,-0.016722856,0.09393098,-0.22949852,-0.088320054,-0.16243891,-0.0043945326,28.056198,0.1,0.18592125,0.18407084,0.11061635,0.08230324,inf,inf,inf,inf,1,1,1,1,2,2,2,2,2,0,1,1,0,0,0
565809475,565808886,68467874,59.396201899999994,24.6605964,2.3079877,-1.2652963,-2.6180706,-0.021752972,-0.012412676,-0.03908609,-0.029086338,0.016400931,-0.097030945,-0.08663719,-0.0076688584,-0.002126247,-0.016722856,-0.14172986,0.035959784,-0.02629069,-0.16246463,-0.0043945326,28.056198,0.1,0.1866518,0.18464105,0.111047946,0.08251056,inf,inf,inf,inf,1,1,1,1,2,2,2,2,2,0,1,1,0,0,0
565820373,565818776,68467874,59.396201899999994,24.6605964,2.3076584,-1.2651097,-2.6189735,-0.021752972,-0.012412676,-0.03908609,-0.027964609,0.01570514,-0.09832857,-0.08797832,-0.0076688584,-0.002126247,-0.016722856,0.2391826,-0.044708397,-0.17119592,-0.16247755,-0.0043945326,28.056198,0.1,0.18738738,0.18521377,0.11148051,0.08271774,inf,inf,inf,inf,1,1,1,1,2,2,2,2,2,0,1,1,0,0,0
565829282,565828656,68467874,59.396201899999994,24.6605964,2.307338,-1.2649282,-2.6198933,-0.021752972,-0.012412676,-0.03908609,-0.028651245,0.015298574,-0.0996683,-0.08936421,-0.0076688584,-0.002126247,-0.016722856,-0.13013454,-0.036848918,-0.12613787,-0.16248697,-0.0043945326,28.056198,0.1,0.18812801,0.18578903,0.11191519,0.08292526,inf,inf,inf,inf,1,1,1,1,2,2,2,2,2,0,1,1,0,0,0
565839220,565838540,68467874,59.396201899999994,24.6605964,2.307016,-1.2647471,-2.6209335,-0.021752972,-0.012412676,-0.03908609,-0.028567815,0.016000038,-0.10049304,-0.09035131,-0.0076688584,-0.002126247,-0.016722856,-0.07254337,0.09219488,-0.12516542,-0.16246201,-0.0043945326,28.056198,0.1,0.18887371,0.18610317,0.11235211,0.08307424,inf,inf,inf,inf,1,1,1,1,2,2,2,2,2,0,1,1,0,0,0
565850693,565848426,68467874,59.396201899999994,24.6605964,2.3067062,-1.2645941,-2.6217241,-0.021752972,-0.012412676,-0.03908609,-0.02752513,0.01562841,-0.10171199,-0.09145843,-0.0076688584,-0.002126247,-0.016722856,0.243399,-0.15895218,-0.21042572,-0.16245414,-0.0043945326,28.056198,0.10059667,0.18056224,0.18005523,0.10742747,0.080797814,inf,inf,inf,inf,1,1,1,1,2,2,2,2,2,0,1,1,0,0,0
565859146,565858310,68467874,59.396201899999994,24.6605964,2.306397,-1.264442,-2.6225343,-0.021752972,-0.012412676,-0.03908609,-0.02940858,0.015792068,-0.10318545,-0.09282927,-0.0076688584,-0.002126247,-0.016722856,-0.17930384,-0.10952862,-0.23447426,-0.1624848,-0.0043945326,28.056198,0.10052681,0.18125556,0.18060717,0.10785715,0.0810047,inf,inf,inf,inf,1,1,1,1,2,2,2,2,2,0,1,1,0,0,0
565868993,565868195,68467874,59.396201899999994,24.6605964,2.3060892,-1.2642926,-2.6233647,-0.021752972,-0.012412676,-0.03908609,-0.028149525,0.015965639,-0.10406363,-0.093613684,-0.0076688584,-0.002126247,-0.016722856,0.04038606,0.04435645,-0.16319858,-0.16252227,-0.0043945326,28.056198,0.100465536,0.18195386,0.18116161,0.1082865,0.08121136,inf,inf,inf,inf,1,1,1,1,2,2,2,2,2,0,1,1,0,0,0
565879141,565878080,68467874,59.396201899999994,24.6605964,2.3057818,-1.2641474,-2.6242094,-0.021752972,-0.012412676,-0.03908609,-0.028139355,0.015033672,-0.10520041,-0.09466522,-0.0076688584,-0.002126247,-0.016722856,0.21632946,-0.09084383,-0.24453396,-0.1625507,-0.0043945326,28.056198,0.10040808,0.18265711,0.18171859,0.10871644,0.08141823,inf,inf,inf,inf,1,1,1,1,2,2,2,2,2,0,1,1,0,0,0
565888921,565887964,68467874,59.396201899999994,24.6605964,2.3054812,-1.2640039,-2.6250663,-0.021752972,-0.012412676,-0.03908609,-0.028831547,0.015380189,-0.10541868,-0.09480647,-0.0076688584,-0.002126247,-0.016722856,-0.2589315,-0.0011297591,-0.07272868,-0.1625429,-0.0043945326,28.056198,0.10035181,0.18336536,0.18227808,0.10914671,0.08162515,inf,inf,inf,inf,1,1,1,1,2,2,2,2,2,0,1,1,0,0,0
565898671,565897849,68467874,59.396201899999994,24.6605964,2.3051784,-1.2638577,-2.6259398,-0.021752972,-0.012412676,-0.03908609,-0.027110334,0.016174667,-0.106635794,-0.095954426,-0.0076688584,-0.002126247,-0.016722856,0.3453056,0.14504571,-0.065545246,-0.16250667,-0.0043945326,28.056198,0.100302935,0.1840786,0.18284012,0.10957915,0.081832215,inf,inf,inf,inf,1,1,1,1,2,2,2,2,2,0,1,1,0,0,0
565908385,565907734,68467874,59.396201899999994,24.6605964,2.3048854,-1.263712,-2.6269376,-0.021752972,-0.012412676,-0.03908609,-0.02777181,0.015583429,-0.10717957,-0.09655233,-0.0076688584,-0.002126247,-0.016722856,-0.025384791,0.042035263,-0.13072997,-0.16248977,-0.0043945326,28.056198,0.1,0.18479687,0.18315338,0.1100076,0.081984416,inf,inf,inf,inf,1,1,1,1,2,2,2,2,2,0,1,1,0,0,0
565918199,565917619,68467874,59.396201899999994,24.6605964,2.304596,-1.2635676,-2.6279445,-0.021752972,-0.012412676,-0.03908609,-0.027711656,0.0159761,-0.10834197,-0.09777115,-0.0076688584,-0.002126247,-0.016722856,-0.18213822,0.1654575,-0.24493414,-0.16251047,-0.0043945326,28.056198,0.1,0.18552013,0.18371968,0.11044163,0.08219168,inf,inf,inf,inf,1,1,1,1,2,2,2,2,2,0,1,1,0,0,0
565928129,565927508,68467874,59.396201899999994,24.6605964,2.304298,-1.2634271,-2.6289701,-0.021752972,-0.012412676,-0.03908609,-0.027834345,0.015723482,-0.109392256,-0.09888001,-0.0076688584,-0.002126247,-0.016722856,0.21787137,0.20717683,0.0037904538,-0.1625651,-0.0043945326,28.056198,0.1,0.18624844,0.18428849,0.11087533,0.08239887,inf,inf,inf,inf,1,1,1,1,2,2,2,2,2,0,1,1,0,0,0
565938056,565937388,68467874,59.396201899999994,24.6605964,2.304008,-1.2632854,-2.630006,-0.021752972,-0.012412676,-0.03908609,-0.027897013,0.015095605,-0.110505715,-0.10005408,-0.0076688584,-0.002126247,-0.016722856,-0.06567247,-0.050534185,-0.14822395,-0.16258658,-0.0043945326,28.056198,0.1,0.18698178,0.18485983,0.111308016,0.08260617,inf,inf,inf,inf,1,1,1,1,2,2,2,2,2,0,1,1,0,0,0
565947946,565947280,68467874,59.396201899999994,24.6605964,2.303725,-1.2631477,-2.6310575,-0.021752972,-0.012412676,-0.03908609,-0.027396968,0.0154969515,-0.111858964,-0.1014699,-0.0076688584,-0.002126247,-0.016722856,-0.1818052,0.16741408,-0.120943226,-0.16257147,-0.0043945326,28.056198,0.1,0.18772016,0.1854337,0.111743696,0.08281363,inf,inf,inf,inf,1,1,1,1,2,2,2,2,2,0,1,1,0,0,0
565958024,565957158,68467874,59.396201899999994,24.6605964,2.3034298,-1.2630109,-2.6321213,-0.021752972,-0.012412676,-0.03908609,-0.028360698,0.014942251,-0.11318086,-0.102856226,-0.0076688584,-0.002126247,-0.016722856,0.11899783,0.037470646,-0.17422298,-0.1625385,-0.0043945326,28.056198,0.1,0.18846363,0.1860101,0.112180814,0.08302091,inf,inf,inf,inf,1,1,1,1,2,2,2,2,2,0,1,1,0,0,0
565967912,565967043,68467874,59.396201899999994,24.6605964,2.3031428,-1.2628701,-2.6333187,-0.021752972,-0.012412676,-0.03908609,-0.027912306,0.015172357,-0.11451826,-0.10437981,-0.0076688584,-0.002126247,-0.016722856,-0.15130359,-0.07108212,-0.14301132,-0.1625214,-0.0043945326,28.056198,0.1,0.18921217,0.18632443,0.11261709,0.08316978,inf,inf,inf,inf,1,1,1,1,2,2,2,2,2,0,1,1,0,0,0
565978214,565976929,68467874,59.396201899999994,24.6605964,2.3028312,-1.2626598,-2.6340835,-0.021752972,-0.012412676,-0.03908609,-0.026219947,0.015595789,-0.11556107,-0.10514201,-0.0076688584,-0.002126247,-0.016722856,0.043389525,0.23029044,-0.14550364,-0.16253614,-0.0043945326,28.056198,0.10594535,0.18084697,0.18025325,0.10765436,0.08088358,inf,inf,inf,inf,1,1,1,1,2,2,2,2,2,0,1,1,0,0,0
565987640,565986812,68467874,59.396201899999994,24.6605964,2.3025162,-1.2624528,-2.6348634,-0.021752972,-0.012412676,-0.03908609,-0.02811902,0.014686216,-0.11500142,-0.10431821,-0.0076688584,-0.002126247,-0.016722856,-0.11867983,-0.0027145166,0.04192916,-0.16257098,-0.0043945326,28.056198,0.105742216,0.18154271,0.18080622,0.108080536,0.08109024,inf,inf,inf,inf,1,1,1,1,2,2,2,2,2,0,1,1,0,0,0
565997282,565996697,68467874,59.396201899999994,24.6605964,2.302201,-1.262247,-2.6356585,-0.021752972,-0.012412676,-0.03908609,-0.027137827,0.014365149,-0.116156444,-0.10522493,-0.0076688584,-0.002126247,-0.016722856,0.11556079,-0.21763487,-0.16702631,-0.16261423,-0.0043945326,28.056198,0.105546236,0.1822434,0.18136169,0.10851142,0.08129717,inf,inf,inf,inf,1,1,1,1,2,2,2,2,2,0,1,1,0,0,0
566007207,566006582,68467874,59.396201899999994,24.6605964,2.301899,-1.2620488,-2.636476,-0.021752972,-0.012412676,-0.03908609,-0.026231334,0.014421371,-0.11697777,-0.10581325,-0.0076688584,-0.002126247,-0.016722856,-0.0038600615,-0.008310363,-0.016803337,-0.16261359,-0.0043945326,28.056198,0.10536122,0.1829491,0.1819197,0.10894116,0.081504025,inf,inf,inf,inf,1,1,1,1,2,2,2,2,2,0,1,1,0,0,0
566017184,566016467,68467874,59.396201899999994,24.6605964,2.3015904,-1.2618518,-2.6373076,-0.021752972,-0.012412676,-0.03908609,-0.027824372,0.014450598,-0.11655552,-0.10517271,-0.0076688584,-0.002126247,-0.016722856,-0.05369915,-0.020488765,0.11915702,-0.1625638,-0.0043945326,28.056198,0.10517931,0.18365976,0.18248023,0.10937297,0.08171097,inf,inf,inf,inf,1,1,1,1,2,2,2,2,2,0,1,1,0,0,0
566027136,566026351,68467874,59.396201899999994,24.6605964,2.301281,-1.2616519,-2.6381423,-0.021752972,-0.012412676,-0.03908609,-0.027294535,0.015088196,-0.11685796,-0.10527104,-0.0076688584,-0.002126247,-0.016722856,0.049095757,0.008333213,-0.19908702,-0.16251226,-0.0043945326,28.056198,0.10498738,0.18437544,0.18304326,0.10980517,0.08191802,inf,inf,inf,inf,1,1,1,1,2,2,2,2,2,0,1,1,0,0,0
566036987,566036237,68467874,59.396201899999994,24.6605964,2.3009827,-1.2614552,-2.6391034,-0.021752972,-0.012412676,-0.03908609,-0.026223034,0.014267987,-0.118166946,-0.106494084,-0.0076688584,-0.002126247,-0.016722856,0.053306982,-0.12256874,-0.078733295,-0.16252719,-0.0043945326,28.056198,0.10234451,0.18509616,0.18335672,0.110237874,0.08207013,inf,inf,inf,inf,1,1,1,1,2,2,2,2,2,0,1,1,0,0,0
566046801,566046125,68467874,59.396201899999994,24.6605964,2.3006809,-1.2612634,-2.6400843,-0.021752972,-0.012412676,-0.03908609,-0.027326155,0.014533018,-0.119577244,-0.1078271,-0.0076688584,-0.002126247,-0.016722856,0.018340208,-0.01982429,-0.08446267,-0.16258803,-0.0043945326,28.056198,0.10226536,0.18582188,0.18392405,0.11067136,0.08227736,inf,inf,inf,inf,1,1,1,1,2,2,2,2,2,0,1,1,0,0,0
566056905,566056006,68467874,59.396201899999994,24.6605964,2.300381,-1.2610708,-2.6410708,-0.021752972,-0.012412676,-0.03908609,-0.027391728,0.014186728,-0.11924414,-0.10742503,-0.0076688584,-0.002126247,-0.016722856,-0.15105031,-0.17014082,-0.040822454,-0.16262093,-0.0043945326,28.056198,0.102181196,0.18655266,0.18449388,0.11110509,0.082484566,inf,inf,inf,inf,1,1,1,1,2,2,2,2,2,0,1,1,0,0,0
566066815,566065891,68467874,59.396201899999994,24.6605964,2.3000863,-1.2608824,-2.6420724,-0.021752972,-0.012412676,-0.03908609,-0.025673814,0.014509055,-0.12061849,-0.10873839,-0.0076688584,-0.002126247,-0.016722856,0.1727374,-0.00453793,-0.055024233,-0.16263379,-0.0043945326,28.056198,0.10209799,0.18728848,0.18506627,0.11154027,0.08269193,inf,inf,inf,inf,1,1,1,1,2,2,2,2,2,0,1,1,0,0,0
566076690,566075779,68467874,59.396201899999994,24.6605964,2.2997856,-1.2606972,-2.6431005,-0.021752972,-0.012412676,-0.03908609,-0.028374702,0.014027879,-0.122606725,-0.11067333,-0.0076688584,-0.002126247,-0.016722856,-0.15667315,-0.029783072,-0.022023764,-0.16261612,-0.0043945326,28.056198,0.102027416,0.18802938,0.18564117,0.11197566,0.082899466,inf,inf,inf,inf,1,1,1,1,2,2,2,2,2,0,1,1,0,0,0
566086868,566085660,68467874,59.396201899999994,24.6605964,2.2994847,-1.2605101,-2.64413,-0.021752972,-0.012412676,-0.03908609,-0.027193647,0.014413092,-0.12113802,-0.10915874,-0.0076688584,-0.002126247,-0.016722856,-0.0036517603,-0.074543595,0.030325882,-0.16255122,-0.0043945326,28.056198,0.10195184,0.18877535,0.18621857,0.11240735,0.083106846,inf,inf,inf,inf,1,1,1,1,2,2,2,2,2,0,1,1,0,0,0
566097162,566095545,68467874,59.396201899999994,24.6605964,2.299194,-1.2603239,-2.6452863,-0.021752972,-0.012412676,-0.03908609,-0.025459917,0.014350071,-0.12293504,-0.11103879,-0.0076688584,-0.002126247,-0.016722856,0.25707388,-0.07711706,-0.22961225,-0.16254608,-0.0043945326,28.056198,0.1,0.18952638,0.18653305,0.11284423,0.08325548,inf,inf,inf,inf,1,1,1,1,2,2,2,2,2,0,1,1,0,0,0
566107070,566105430,68467874,59.396201899999994,24.6605964,2.2988977,-1.2601411,-2.6464596,-0.021752972,-0.012412676,-0.03908609,-0.028903482,0.01372143,-0.12410819,-0.11229653,-0.0076688584,-0.002126247,-0.016722856,-0.34665743,-0.19467059,-0.12703319,-0.16260289,-0.0043945326,28.056198,0.1,0.1902825,0.1871147,0.11328065,0.0834632,inf,inf,inf,inf,1,1,1,1,2,2,2,2,2,0,1,1,0,0,0
566118708,566115315,68467874,59.396201899999994,24.6605964,2.2987266,-1.2600623,-2.6472754,-0.021752972,-0.012412676,-0.03908609,-0.026523603,0.014649568,-0.124353476,-0.112245075,-0.0076688584,-0.002126247,-0.016722856,0.062851146,0.0014348315,-0.10226827,-0.16265206,-0.0043945326,28.056198,0.10794163,0.18175445,0.18096168,0.10821149,0.08114463,inf,inf,inf,inf,1,1,1,1,2,2,2,2,2,0,1,1,0,0,0
566126808,566125200,68467874,59.396201899999994,24.6605964,2.2985632,-1.2599853,-2.6481037,-0.021752972,-0.012412676,-0.03908609,-0.025496,0.014023424,-0.124188915,-0.1118016,-0.0076688584,-0.002126247,-0.016722856,0.19561228,0.028842408,-0.042076528,-0.16267188,-0.0043945326,28.056198,0.107678175,0.18245657,0.18151782,0.10863979,0.081351474,inf,inf,inf,inf,1,1,1,1,2,2,2,2,2,0,1,1,0,0,0
566137030,566135084,68467874,59.396201899999994,24.6605964,2.2984002,-1.2599043,-2.6489432,-0.021752972,-0.012412676,-0.03908609,-0.02787513,0.0140619185,-0.124062315,-0.11141328,-0.0076688584,-0.002126247,-0.016722856,-0.5300744,-0.08208222,-0.073364794,-0.16265112,-0.0043945326,28.056198,0.10741353,0.18316367,0.18207648,0.10907279,0.08155848,inf,inf,inf,inf,1,1,1,1,2,2,2,2,2,0,1,1,0,0,0
566146769,566144975,68467874,59.396201899999994,24.6605964,2.2982233,-1.2598218,-2.6498108,-0.021752972,-0.012412676,-0.03908609,-0.025950173,0.015014593,-0.12634031,-0.113446124,-0.0076688584,-0.002126247,-0.016722856,0.29666263,0.19007133,-0.13151917,-0.16258278,-0.0043945326,28.056198,0.10716152,0.18387577,0.18263766,0.109504566,0.081765346,inf,inf,inf,inf,1,1,1,1,2,2,2,2,2,0,1,1,0,0,0
566156806,566154854,68467874,59.396201899999994,24.6605964,2.2980566,-1.2597407,-2.6507025,-0.021752972,-0.012412676,-0.03908609,-0.025578842,0.014008752,-0.12764291,-0.11451952,-0.0076688584,-0.002126247,-0.016722856,0.11849506,0.053642735,-0.18362023,-0.16256665,-0.0043945326,28.056198,0.106928825,0.1845929,0.18320139,0.10993205,0.081972405,inf,inf,inf,inf,1,1,1,1,2,2,2,2,2,0,1,1,0,0,0
566166926,566164738,68467874,59.396201899999994,24.6605964,2.2978885,-1.2596618,-2.651722,-0.021752972,-0.012412676,-0.03908609,-0.027197732,0.01423938,-0.12739956,-0.114174105,-0.0076688584,-0.002126247,-0.016722856,-0.34909147,0.14343932,0.055501364,-0.16263878,-0.0043945326,28.056198,0.10407233,0.18531501,0.18351483,0.11036616,0.08212445,inf,inf,inf,inf,1,1,1,1,2,2,2,2,2,0,1,1,0,0,0
566177205,566174623,68467874,59.396201899999994,24.6605964,2.297705,-1.2595806,-2.6527517,-0.021752972,-0.012412676,-0.03908609,-0.026594857,0.014499553,-0.12853934,-0.115221776,-0.0076688584,-0.002126247,-0.016722856,0.2420377,0.21286605,-0.17202401,-0.16269353,-0.0043945326,28.056198,0.10394359,0.18604216,0.1840828,0.110801876,0.08233146,inf,inf,inf,inf,1,1,1,1,2,2,2,2,2,0,1,1,0,0,0
566185129,566184508,68467874,59.396201899999994,24.6605964,2.2975366,-1.259499,-2.6538029,-0.021752972,-0.012412676,-0.03908609,-0.02491927,0.013723695,-0.13017106,-0.11677099,-0.0076688584,-0.002126247,-0.016722856,0.10115714,0.014940988,-0.21638739,-0.16270612,-0.0043945326,28.056198,0.10383296,0.18677437,0.18465331,0.11122812,0.08253883,inf,inf,inf,inf,1,1,1,1,2,2,2,2,2,0,1,1,0,0,0
566194984,566194393,68467874,59.396201899999994,24.6605964,2.2973688,-1.2594228,-2.6548688,-0.021752972,-0.012412676,-0.03908609,-0.026263094,0.013327113,-0.12977576,-0.11630239,-0.0076688584,-0.002126247,-0.016722856,-0.23514077,0.08625112,0.082022436,-0.16269055,-0.0043945326,28.056198,0.10373235,0.18751161,0.18522634,0.11166506,0.08274631,inf,inf,inf,inf,1,1,1,1,2,2,2,2,2,0,1,1,0,0,0
566204852,566204278,68467874,59.396201899999994,24.6605964,2.297186,-1.2593459,-2.6559412,-0.021752972,-0.012412676,-0.03908609,-0.026558017,0.013633529,-0.13020213,-0.11666433,-0.0076688584,-0.002126247,-0.016722856,0.108643,0.116692014,-0.09714496,-0.16263796,-0.0043945326,28.056198,0.10362244,0.18825391,0.1858019,0.112100184,0.08295348,inf,inf,inf,inf,1,1,1,1,2,2,2,2,2,0,1,1,0,0,0
566214986,566214162,68467874,59.396201899999994,24.6605964,2.29701,-1.2592661,-2.657024,-0.021752972,-0.012412676,-0.03908609,-0.025071641,0.013365087,-0.13085812,-0.117264375,-0.0076688584,-0.002126247,-0.016722856,0.17330673,-0.028773975,-0.15124772,-0.16261551,-0.0043945326,28.056198,0.10351372,0.18900129,0.18637997,0.11253395,0.08316113,inf,inf,inf,inf,1,1,1,1,2,2,2,2,2,0,1,1,0,0,0
566224995,566224047,68467874,59.396201899999994,24.6605964,2.2968373,-1.2591839,-2.6582406,-0.021752972,-0.012412676,-0.03908609,-0.025826884,0.013246211,-0.13169788,-0.118176505,-0.0076688584,-0.002126247,-0.016722856,-0.105625324,-0.12842533,-0.074740574,-0.16264012,-0.0043945326,28.056198,0.10058761,0.18975374,0.18669441,0.112966776,0.08330958,inf,inf,inf,inf,1,1,1,1,2,2,2,2,2,0,1,1,0,0,0
566234832,566233932,68467874,59.396201899999994,24.6605964,2.2966528,-1.2591041,-2.6594615,-0.021752972,-0.012412676,-0.03908609,-0.026168952,0.013384452,-0.13156624,-0.11811989,-0.0076688584,-0.002126247,-0.016722856,0.13360307,0.027763665,-0.06471494,-0.16268402,-0.0043945326,28.056198,0.100602865,0.19051127,0.18727672,0.11339978,0.08351703,inf,inf,inf,inf,1,1,1,1,2,2,2,2,2,0,1,1,0,0,0
566244810,566243830,68467874,59.396201899999994,24.6605964,2.2964754,-1.2590264,-2.6606917,-0.021752972,-0.012412676,-0.03908609,-0.024872765,0.012597165,-0.13303655,-0.11966783,-0.0076688584,-0.002126247,-0.016722856,0.10503378,-0.05000554,-0.2674248,-0.1627358,-0.0043945326,28.056198,0.10061455,0.1912739,0.18786155,0.11384135,0.083724864,inf,inf,inf,inf,1,1,1,1,2,2,2,2,2,0,1,1,0,0,0
566254528,566253702,68467874,59.396201899999994,24.6605964,2.2963037,-1.2589477,-2.6619391,-0.021752972,-0.012412676,-0.03908609,-0.025239907,0.012983748,-0.13422489,-0.120936155,-0.0076688584,-0.002126247,-0.016722856,-0.14492764,0.002633825,-0.057450984,-0.16273686,-0.0043945326,28.056198,0.10062504,0.19204165,0.18844894,0.114280924,0.08393269,inf,inf,inf,inf,1,1,1,1,2,2,2,2,2,0,1,1,0,0,0
566264491,566263586,68467874,59.396201899999994,24.6605964,2.2961192,-1.2588645,-2.6631982,-0.021752972,-0.012412676,-0.03908609,-0.025630644,0.013150456,-0.13453057,-0.12132412,-0.0076688584,-0.002126247,-0.016722856,0.1591027,-0.06568564,-0.020306256,-0.16268143,-0.0043945326,28.056198,0.100637674,0.19281451,0.18903883,0.11471581,0.0841404,inf,inf,inf,inf,1,1,1,1,2,2,2,2,2,0,1,1,0,0,0
566274787,566273471,68467874,59.396201899999994,24.6605964,2.2958622,-1.2587721,-2.6640458,-0.021752972,-0.012412676,-0.03908609,-0.025756892,0.012636209,-0.13502973,-0.12147291,-0.0076688584,-0.002126247,-0.016722856,0.05178879,-0.07154842,-0.1841263,-0.16266766,-0.0043945326,28.056198,0.110708,0.18390009,0.1826851,0.10942109,0.08174523,inf,inf,inf,inf,1,1,1,1,2,2,2,2,2,0,1,1,0,0,0
566284051,566283356,68467874,59.396201899999994,24.6605964,2.29561,-1.2586821,-2.6649184,-0.021752972,-0.012412676,-0.03908609,-0.02561711,0.0124823665,-0.13644837,-0.1225619,-0.0076688584,-0.002126247,-0.016722856,-0.09088989,-0.036833428,-0.28676325,-0.16270782,-0.0043945326,28.056198,0.11036444,0.18461631,0.1832486,0.10985482,0.08195236,inf,inf,inf,inf,1,1,1,1,2,2,2,2,2,0,1,1,0,0,0
566293917,566293241,68467874,59.396201899999994,24.6605964,2.2953532,-1.2585921,-2.6659064,-0.021752972,-0.012412676,-0.03908609,-0.025864596,0.013155097,-0.13599823,-0.12189433,-0.0076688584,-0.002126247,-0.016722856,0.038899593,0.15857723,0.21016927,-0.16275361,-0.0043945326,28.056198,0.1078639,0.18533753,0.18356162,0.11028236,0.08210411,inf,inf,inf,inf,1,1,1,1,2,2,2,2,2,0,1,1,0,0,0
566303677,566303129,68467874,59.396201899999994,24.6605964,2.2951012,-1.2585018,-2.6668975,-0.021752972,-0.012412676,-0.03908609,-0.025304418,0.012312034,-0.13601704,-0.12171094,-0.0076688584,-0.002126247,-0.016722856,0.0045916354,-0.0026594875,-0.12894697,-0.16278122,-0.0043945326,28.056198,0.107622385,0.18606375,0.18412937,0.110713296,0.082311206,inf,inf,inf,inf,1,1,1,1,2,2,2,2,2,0,1,1,0,0,0
566314066,566313013,68467874,59.396201899999994,24.6605964,2.2948568,-1.2584103,-2.667904,-0.021752972,-0.012412676,-0.03908609,-0.024342727,0.012693023,-0.13611788,-0.12162428,-0.0076688584,-0.002126247,-0.016722856,0.09181566,-0.023859957,0.026738157,-0.1627795,-0.0043945326,28.056198,0.10738993,0.18679501,0.18469965,0.11114522,0.08251852,inf,inf,inf,inf,1,1,1,1,2,2,2,2,2,0,1,1,0,0,0
566323604,566322895,68467874,59.396201899999994,24.6605964,2.2946076,-1.2583214,-2.6689258,-0.021752972,-0.012412676,-0.03908609,-0.025702856,0.012059125,-0.13683453,-0.1221676,-0.0076688584,-0.002126247,-0.016722856,-0.0029105358,-0.06930057,-0.010303302,-0.16274683,-0.0043945326,28.056198,0.10716343,0.1875313,0.18527246,0.1115792,0.082725726,inf,inf,inf,inf,1,1,1,1,2,2,2,2,2,0,1,1,0,0,0
566333807,566332780,68467874,59.396201899999994,24.6605964,2.2943642,-1.2582324,-2.669958,-0.021752972,-0.012412676,-0.03908609,-0.024648558,0.012044079,-0.13639593,-0.12156928,-0.0076688584,-0.002126247,-0.016722856,-0.066866115,-0.09080353,0.034950234,-0.1627075,-0.0043945326,28.056198,0.10694146,0.18827266,0.18584777,0.11201019,0.08293304,inf,inf,inf,inf,1,1,1,1,2,2,2,2,2,0,1,1,0,0,0
566343658,566342665,68467874,59.396201899999994,24.6605964,2.2941217,-1.258144,-2.6710079,-0.021752972,-0.012412676,-0.03908609,-0.024798157,0.012519412,-0.13753198,-0.1225587,-0.0076688584,-0.002126247,-0.016722856,-0.0033914114,0.09179535,0.02094893,-0.16272771,-0.0043945326,28.056198,0.10672617,0.18901905,0.18642564,0.112447806,0.08314059,inf,inf,inf,inf,1,1,1,1,2,2,2,2,2,0,1,1,0,0,0
566354169,566352550,68467874,59.396201899999994,24.6605964,2.2938254,-1.2581162,-2.6716137,-0.021752972,-0.012412676,-0.03908609,-0.025801467,0.012030095,-0.13920328,-0.12360947,-0.0076688584,-0.002126247,-0.016722856,-0.19447014,0.05952804,-0.27587146,-0.16279455,-0.0043945326,28.056198,0.11774802,0.1806876,0.18034601,0.107510306,0.080854945,inf,inf,inf,inf,1,1,1,1,2,2,2,2,2,0,1,1,0,0,0
566363322,566362434,68467874,59.396201899999994,24.6605964,2.2935288,-1.2580874,-2.6723351,-0.021752972,-0.012412676,-0.03908609,-0.024704397,0.011537186,-0.13840042,-0.12230619,-0.0076688584,-0.002126247,-0.016722856,0.14964847,-0.08822436,0.04336172,-0.16284777,-0.0043945326,28.056198,0.11510897,0.1813815,0.18065758,0.107936494,0.081009865,inf,inf,inf,inf,1,1,1,1,2,2,2,2,2,0,1,1,0,0,0
566372950,566372319,68467874,59.396201899999994,24.6605964,2.2932389,-1.258059,-2.673077,-0.021752972,-0.012412676,-0.03908609,-0.024927506,0.012044416,-0.13947295,-0.12290636,-0.0076688584,-0.002126247,-0.016722856,-0.030198922,0.12413016,-0.15384306,-0.16285248,-0.0043945326,28.056198,0.114616394,0.18208034,0.18121207,0.10836574,0.08121659,inf,inf,inf,inf,1,1,1,1,2,2,2,2,2,0,1,1,0,0,0
566382859,566382204,68467874,59.396201899999994,24.6605964,2.292951,-1.2580247,-2.6738403,-0.021752972,-0.012412676,-0.03908609,-0.02536284,0.01242907,-0.13910584,-0.12209395,-0.0076688584,-0.002126247,-0.016722856,-0.19945854,0.08687076,-0.036314875,-0.1628122,-0.0043945326,28.056198,0.11413193,0.18278414,0.18176907,0.108797215,0.08142339,inf,inf,inf,inf,1,1,1,1,2,2,2,2,2,0,1,1,0,0,0
566392701,566392089,68467874,59.396201899999994,24.6605964,2.2926598,-1.2579906,-2.674619,-0.021752972,-0.012412676,-0.03908609,-0.025046755,0.011433703,-0.13882804,-0.12139698,-0.0076688584,-0.002126247,-0.016722856,0.045090623,-0.074196115,-0.03970027,-0.16277996,-0.0043945326,28.056198,0.11365771,0.18349296,0.1823286,0.10922268,0.08163022,inf,inf,inf,inf,1,1,1,1,2,2,2,2,2,0,1,1,0,0,0
566402681,566401973,68467874,59.396201899999994,24.6605964,2.292378,-1.2579573,-2.6754198,-0.021752972,-0.012412676,-0.03908609,-0.025285136,0.011155808,-0.13953978,-0.12171471,-0.0076688584,-0.002126247,-0.016722856,-0.30781326,-0.120798856,-0.091535285,-0.16276492,-0.0043945326,28.056198,0.11320448,0.18420675,0.18289067,0.10965232,0.08183726,inf,inf,inf,inf,1,1,1,1,2,2,2,2,2,0,1,1,0,0,0
566412827,566411860,68467874,59.396201899999994,24.6605964,2.2920878,-1.2579242,-2.676241,-0.021752972,-0.012412676,-0.03908609,-0.025153102,0.011112518,-0.13925368,-0.12105885,-0.0076688584,-0.002126247,-0.016722856,0.0944167,-0.10895223,0.037208073,-0.16280901,-0.0043945326,28.056198,0.11276674,0.18492554,0.18345524,0.110081926,0.08204437,inf,inf,inf,inf,1,1,1,1,2,2,2,2,2,0,1,1,0,0,0
566422565,566421747,68467874,59.396201899999994,24.6605964,2.2918026,-1.2578919,-2.6771939,-0.021752972,-0.012412676,-0.03908609,-0.024805604,0.010905724,-0.13986225,-0.12143743,-0.0076688584,-0.002126247,-0.016722856,0.09528299,-0.053503647,-0.12916088,-0.16285071,-0.0043945326,28.056198,0.10959816,0.18564935,0.18376851,0.11051285,0.0821959,inf,inf,inf,inf,1,1,1,1,2,2,2,2,2,0,1,1,0,0,0
566432413,566431627,68467874,59.396201899999994,24.6605964,2.2915275,-1.2578614,-2.678166,-0.021752972,-0.012412676,-0.03908609,-0.023438184,0.011209349,-0.14033669,-0.12169935,-0.0076688584,-0.002126247,-0.016722856,0.20253909,0.12130071,-0.023485793,-0.16286938,-0.0043945326,28.056198,0.109294176,0.18637818,0.18433736,0.110941604,0.08240317,inf,inf,inf,inf,1,1,1,1,2,2,2,2,2,0,1,1,0,0,0
566442501,566441512,68467874,59.396201899999994,24.6605964,2.2912467,-1.2578272,-2.6791544,-0.021752972,-0.012412676,-0.03908609,-0.025288098,0.01140247,-0.14086951,-0.122036494,-0.0076688584,-0.002126247,-0.016722856,0.07172222,0.13252963,-0.1314755,-0.16285016,-0.0043945326,28.056198,0.10899997,0.18711203,0.18490873,0.11137652,0.0826104,inf,inf,inf,inf,1,1,1,1,2,2,2,2,2,0,1,1,0,0,0
566452349,566451398,68467874,59.396201899999994,24.6605964,2.2909698,-1.2577889,-2.6801577,-0.021752972,-0.012412676,-0.03908609,-0.024695855,0.010591809,-0.14062648,-0.12161397,-0.0076688584,-0.002126247,-0.016722856,-0.06219469,-0.1650762,-0.0508053,-0.16279733,-0.0043945326,28.056198,0.10870218,0.18785094,0.18548264,0.11181429,0.08281766,inf,inf,inf,inf,1,1,1,1,2,2,2,2,2,0,1,1,0,0,0
566461948,566461284,68467874,59.396201899999994,24.6605964,2.2906976,-1.2577535,-2.681178,-0.021752972,-0.012412676,-0.03908609,-0.023539795,0.010278178,-0.14211732,-0.12294097,-0.0076688584,-0.002126247,-0.016722856,0.1853077,-0.17715381,-0.15676548,-0.16280451,-0.0043945326,28.056198,0.10841298,0.18859492,0.18605906,0.11224394,0.08302517,inf,inf,inf,inf,1,1,1,1,2,2,2,2,2,0,1,1,0,0,0
566471785,566471167,68467874,59.396201899999994,24.6605964,2.2904203,-1.257718,-2.682222,-0.021752972,-0.012412676,-0.03908609,-0.026870731,0.01076531,-0.14252079,-0.1231956,-0.0076688584,-0.002126247,-0.016722856,-0.4551875,0.019184098,0.01528376,-0.16285132,-0.0043945326,28.056198,0.10814214,0.18934396,0.18663801,0.11268033,0.08323263,inf,inf,inf,inf,1,1,1,1,2,2,2,2,2,0,1,1,0,0,0
566482643,566481052,68467874,59.396201899999994,24.6605964,2.2902517,-1.2575988,-2.6829145,-0.021752972,-0.012412676,-0.03908609,-0.024644095,0.010777918,-0.14219962,-0.12236184,-0.0076688584,-0.002126247,-0.016722856,0.22425573,-0.1653429,-0.03001598,-0.16289215,-0.0043945326,28.056198,0.11663985,0.18096153,0.180536,0.1077047,0.08093743,inf,inf,inf,inf,1,1,1,1,2,2,2,2,2,0,1,1,0,0,0
566491950,566490937,68467874,59.396201899999994,24.6605964,2.290091,-1.2574843,-2.6837423,-0.021752972,-0.012412676,-0.03908609,-0.02455074,0.010694899,-0.14232944,-0.122127905,-0.0076688584,-0.002126247,-0.016722856,0.103481494,-0.026991837,-0.15192398,-0.16289458,-0.0043945326,28.056198,0.1132772,0.18165764,0.1808478,0.10813071,0.08109223,inf,inf,inf,inf,1,1,1,1,2,2,2,2,2,0,1,1,0,0,0
566501756,566500824,68467874,59.396201899999994,24.6605964,2.2899275,-1.2573671,-2.6845942,-0.021752972,-0.012412676,-0.03908609,-0.026201095,0.010709785,-0.14276007,-0.122218676,-0.0076688584,-0.002126247,-0.016722856,-0.37452242,-0.15403756,-0.07200199,-0.16286226,-0.0043945326,28.056198,0.11283851,0.18235871,0.18140326,0.108560264,0.08129899,inf,inf,inf,inf,1,1,1,1,2,2,2,2,2,0,1,1,0,0,0
566512492,566510706,68467874,59.396201899999994,24.6605964,2.289755,-1.2572474,-2.685465,-0.021752972,-0.012412676,-0.03908609,-0.024289161,0.011242061,-0.14321208,-0.1223539,-0.0076688584,-0.002126247,-0.016722856,0.3244676,-0.12953481,-0.110790506,-0.1627937,-0.0043945326,28.056198,0.11241245,0.18306476,0.18196127,0.108987324,0.08150584,inf,inf,inf,inf,1,1,1,1,2,2,2,2,2,0,1,1,0,0,0
566521798,566520591,68467874,59.396201899999994,24.6605964,2.2895956,-1.2571355,-2.686356,-0.021752972,-0.012412676,-0.03908609,-0.024162937,0.011324604,-0.14319782,-0.122045025,-0.0076688584,-0.002126247,-0.016722856,-0.019986162,0.21150598,-0.05712767,-0.16279897,-0.0043945326,28.056198,0.11199975,0.1837758,0.18252179,0.10941871,0.08171282,inf,inf,inf,inf,1,1,1,1,2,2,2,2,2,0,1,1,0,0,0
566531657,566530476,68467874,59.396201899999994,24.6605964,2.2894375,-1.2570262,-2.6872635,-0.021752972,-0.012412676,-0.03908609,-0.024847697,0.010482957,-0.14357488,-0.12214885,-0.0076688584,-0.002126247,-0.016722856,-0.37311098,0.06741216,-0.1334852,-0.1628554,-0.0043945326,28.056198,0.11159563,0.18449183,0.18308483,0.109848104,0.08191992,inf,inf,inf,inf,1,1,1,1,2,2,2,2,2,0,1,1,0,0,0
566541504,566540361,68467874,59.396201899999994,24.6605964,2.2892666,-1.2569137,-2.6881907,-0.021752972,-0.012412676,-0.03908609,-0.023956046,0.0107574705,-0.14334534,-0.12166664,-0.0076688584,-0.002126247,-0.016722856,0.30113748,-0.04332239,0.026978882,-0.16287695,-0.0043945326,28.056198,0.11120343,0.18521287,0.18365039,0.1102796,0.08212686,inf,inf,inf,inf,1,1,1,1,2,2,2,2,2,0,1,1,0,0,0
566551512,566550245,68467874,59.396201899999994,24.6605964,2.2891054,-1.2568052,-2.689233,-0.021752972,-0.012412676,-0.03908609,-0.023911774,0.010664683,-0.14478661,-0.12297051,-0.0076688584,-0.002126247,-0.016722856,-0.056526706,0.09935882,-0.11452625,-0.1628917,-0.0043945326,28.056198,0.10857773,0.18593894,0.18396382,0.110708565,0.08227835,inf,inf,inf,inf,1,1,1,1,2,2,2,2,2,0,1,1,0,0,0
566560809,566560130,68467874,59.396201899999994,24.6605964,2.2889423,-1.2566959,-2.6902902,-0.021752972,-0.012412676,-0.03908609,-0.024568135,0.010981703,-0.14432152,-0.122382894,-0.0076688584,-0.002126247,-0.016722856,-0.23124321,0.1266187,-0.0016639747,-0.16288525,-0.0043945326,28.056198,0.10829568,0.18667002,0.18453364,0.111143425,0.08248567,inf,inf,inf,inf,1,1,1,1,2,2,2,2,2,0,1,1,0,0,0
566570564,566570015,68467874,59.396201899999994,24.6605964,2.2887673,-1.2565825,-2.691363,-0.021752972,-0.012412676,-0.03908609,-0.023839291,0.011654768,-0.1451405,-0.12309373,-0.0076688584,-0.002126247,-0.016722856,0.36948743,0.17833322,-0.112674154,-0.1628253,-0.0043945326,28.056198,0.108018875,0.18740618,0.185106,0.11157557,0.08269269,inf,inf,inf,inf,1,1,1,1,2,2,2,2,2,0,1,1,0,0,0
566580495,566579900,68467874,59.396201899999994,24.6605964,2.2885985,-1.2564692,-2.6924486,-0.021752972,-0.012412676,-0.03908609,-0.02460671,0.011583638,-0.14541547,-0.12327431,-0.0076688584,-0.002126247,-0.016722856,-0.09154783,0.19353317,-0.20589912,-0.16279675,-0.0043945326,28.056198,0.10775089,0.18814737,0.18568087,0.11200666,0.08290024,inf,inf,inf,inf,1,1,1,1,2,2,2,2,2,0,1,1,0,0,0
566590601,566589785,68467874,59.396201899999994,24.6605964,2.288429,-1.2563591,-2.6935496,-0.021752972,-0.012412676,-0.03908609,-0.02416623,0.010646219,-0.14562358,-0.1234013,-0.0076688584,-0.002126247,-0.016722856,-0.060535956,0.0064045573,-0.106973305,-0.16283312,-0.0043945326,28.056198,0.10749364,0.18889362,0.18625827,0.11244085,0.08310772,inf,inf,inf,inf,1,1,1,1,2,2,2,2,2,0,1,1,0,0,0
566600459,566599669,68467874,59.396201899999994,24.6605964,2.288253,-1.2562516,-2.6946676,-0.021752972,-0.012412676,-0.03908609,-0.024150344,0.010382471,-0.14563559,-0.123344935,-0.0076688584,-0.002126247,-0.016722856,0.1847151,-0.06071199,0.08078938,-0.16285303,-0.0043945326,28.056198,0.10724735,0.18964495,0.18683821,0.1128739,0.083315104,inf,inf,inf,inf,1,1,1,1,2,2,2,2,2,0,1,1,0,0,0
566611956,566609554,68467874,59.396201899999994,24.6605964,2.2879698,-1.256177,-2.6953447,-0.021752972,-0.012412676,-0.03908609,-0.024163192,0.010513116,-0.14474668,-0.12193616,-0.0076688584,-0.002126247,-0.016722856,-0.12589227,0.12255609,-0.011895332,-0.16286129,-0.0043945326,28.056198,0.117708206,0.18121588,0.18071522,0.10787179,0.08101134,inf,inf,inf,inf,1,1,1,1,2,2,2,2,2,0,1,1,0,0,0
566620318,566619439,68467874,59.396201899999994,24.6605964,2.2876887,-1.256097,-2.696144,-0.021752972,-0.012412676,-0.03908609,-0.023501607,0.010835238,-0.14528726,-0.12208891,-0.0076688584,-0.002126247,-0.016722856,0.065549985,0.036509402,-0.08039568,-0.16286233,-0.0043945326,28.056198,0.11472273,0.18191394,0.18102717,0.10829911,0.08116591,inf,inf,inf,inf,1,1,1,1,2,2,2,2,2,0,1,1,0,0,0
566630499,566629324,68467874,59.396201899999994,24.6605964,2.2874045,-1.2560145,-2.6969664,-0.021752972,-0.012412676,-0.03908609,-0.023839595,0.010926818,-0.14487383,-0.121313766,-0.0076688584,-0.002126247,-0.016722856,0.25089327,0.02278897,0.057100177,-0.16282438,-0.0043945326,28.056198,0.114213705,0.18261696,0.18158354,0.10872683,0.08137267,inf,inf,inf,inf,1,1,1,1,2,2,2,2,2,0,1,1,0,0,0
566639839,566639223,68467874,59.396201899999994,24.6605964,2.2871282,-1.2559317,-2.6978052,-0.021752972,-0.012412676,-0.03908609,-0.023978416,0.010624631,-0.14463566,-0.12073906,-0.0076688584,-0.002126247,-0.016722856,-0.07164718,-0.03586755,-0.06721302,-0.1628061,-0.0043945326,28.056198,0.11371875,0.18332496,0.18214242,0.10915381,0.08157962,inf,inf,inf,inf,1,1,1,1,2,2,2,2,2,0,1,1,0,0,0
566649727,566649103,68467874,59.396201899999994,24.6605964,2.2868483,-1.2558489,-2.6986609,-0.021752972,-0.012412676,-0.03908609,-0.023946403,0.010051627,-0.1452643,-0.12105537,-0.0076688584,-0.002126247,-0.016722856,0.12839447,-0.22297157,-0.13561857,-0.16281772,-0.0043945326,28.056198,0.11323166,0.18403794,0.18270381,0.10958719,0.08178659,inf,inf,inf,inf,1,1,1,1,2,2,2,2,2,0,1,1,0,0,0
566659667,566658979,68467874,59.396201899999994,24.6605964,2.2865667,-1.2557683,-2.6995456,-0.021752972,-0.012412676,-0.03908609,-0.024145659,0.0102990875,-0.14600292,-0.121505015,-0.0076688584,-0.002126247,-0.016722856,0.2088714,-0.10248819,-0.012592248,-0.16284235,-0.0043945326,28.056198,0.112764835,0.18475594,0.18326774,0.11001483,0.08199358,inf,inf,inf,inf,1,1,1,1,2,2,2,2,2,0,1,1,0,0,0
566669552,566668864,68467874,59.396201899999994,24.6605964,2.2862914,-1.255692,-2.7004507,-0.021752972,-0.012412676,-0.03908609,-0.024907961,0.010082287,-0.14608611,-0.12132169,-0.0076688584,-0.002126247,-0.016722856,-0.24209987,0.072780415,-0.053975906,-0.16286868,-0.0043945326,28.056198,0.112314224,0.18547894,0.18383418,0.110446565,0.08220073,inf,inf,inf,inf,1,1,1,1,2,2,2,2,2,0,1,1,0,0,0
566679427,566678749,68467874,59.396201899999994,24.6605964,2.2860134,-1.2556111,-2.7013705,-0.021752972,-0.012412676,-0.03908609,-0.023975454,0.010473756,-0.14581428,-0.12080496,-0.0076688584,-0.002126247,-0.016722856,0.098276064,0.0005189604,-0.02752789,-0.16286282,-0.0043945326,28.056198,0.11187124,0.18620698,0.18440315,0.11087737,0.082407854,inf,inf,inf,inf,1,1,1,1,2,2,2,2,2,0,1,1,0,0,0
566689355,566688637,68467874,59.396201899999994,24.6605964,2.285736,-1.2555294,-2.7024379,-0.021752972,-0.012412676,-0.03908609,-0.02440915,0.0107062515,-0.14615507,-0.1210548,-0.0076688584,-0.002126247,-0.016722856,0.0761769,0.11077641,-0.056102015,-0.1628271,-0.0043945326,28.056198,0.10829997,0.18694006,0.18471685,0.11130931,0.08255849,inf,inf,inf,inf,1,1,1,1,2,2,2,2,2,0,1,1,0,0,0
566699314,566698518,68467874,59.396201899999994,24.6605964,2.285466,-1.2554461,-2.7035165,-0.021752972,-0.012412676,-0.03908609,-0.02426511,0.00977752,-0.14568798,-0.12051101,-0.0076688584,-0.002126247,-0.016722856,-0.16767116,-0.18400942,0.07184365,-0.16280562,-0.0043945326,28.056198,0.10799694,0.18767816,0.18529008,0.111739516,0.08276584,inf,inf,inf,inf,1,1,1,1,2,2,2,2,2,0,1,1,0,0,0
566709213,566708403,68467874,59.396201899999994,24.6605964,2.2851925,-1.2553637,-2.7046058,-0.021752972,-0.012412676,-0.03908609,-0.023808202,0.010260738,-0.14527501,-0.120035,-0.0076688584,-0.002126247,-0.016722856,0.16430514,-0.06292968,0.10590032,-0.1628313,-0.0043945326,28.056198,0.1077075,0.18842132,0.18586582,0.11216848,0.08297325,inf,inf,inf,inf,1,1,1,1,2,2,2,2,2,0,1,1,0,0,0
566719182,566718288,68467874,59.396201899999994,24.6605964,2.284919,-1.255282,-2.7057054,-0.021752972,-0.012412676,-0.03908609,-0.02505303,0.010291166,-0.1461064,-0.12081648,-0.0076688584,-0.002126247,-0.016722856,-0.104212224,0.012073942,-0.13375424,-0.16287467,-0.0043945326,28.056198,0.10742617,0.18916953,0.1864441,0.11260349,0.08318079,inf,inf,inf,inf,1,1,1,1,2,2,2,2,2,0,1,1,0,0,0
566729136,566728172,68467874,59.396201899999994,24.6605964,2.2846515,-1.2552011,-2.70682,-0.021752972,-0.012412676,-0.03908609,-0.024004912,0.00971261,-0.14621036,-0.120883144,-0.0076688584,-0.002126247,-0.016722856,-0.13973694,-0.08049269,-0.055153023,-0.1628836,-0.0043945326,28.056198,0.107153654,0.18992281,0.1870249,0.11303625,0.083388336,inf,inf,inf,inf,1,1,1,1,2,2,2,2,2,0,1,1,0,0,0
566739327,566738057,68467874,59.396201899999994,24.6605964,2.2844996,-1.2552906,-2.7076602,-0.021752972,-0.012412676,-0.03908609,-0.023571206,0.009804692,-0.1465965,-0.12094058,-0.0076688584,-0.002126247,-0.016722856,0.21782115,0.015474768,0.021442525,-0.16287126,-0.0043945326,28.056198,0.11393595,0.18145153,0.18088245,0.108006254,0.08107656,inf,inf,inf,inf,1,1,1,1,2,2,2,2,2,0,1,1,0,0,0
566748569,566747942,68467874,59.396201899999994,24.6605964,2.2843459,-1.2553723,-2.7086182,-0.021752972,-0.012412676,-0.03908609,-0.024951868,0.010153052,-0.1473455,-0.12148208,-0.0076688584,-0.002126247,-0.016722856,-0.14815854,0.007961524,-0.12927605,-0.16284704,-0.0043945326,28.056198,0.11116481,0.18215126,0.18119453,0.1084352,0.081230976,inf,inf,inf,inf,1,1,1,1,2,2,2,2,2,0,1,1,0,0,0
566758467,566757827,68467874,59.396201899999994,24.6605964,2.2841883,-1.2554504,-2.7095985,-0.021752972,-0.012412676,-0.03908609,-0.02458166,0.00969453,-0.1475867,-0.12153532,-0.0076688584,-0.002126247,-0.016722856,-0.100413606,-0.04517042,-0.0068434076,-0.16283579,-0.0043945326,28.056198,0.11076903,0.18285593,0.18175167,0.10886515,0.0814378,inf,inf,inf,inf,1,1,1,1,2,2,2,2,2,0,1,1,0,0,0
566768332,566767711,68467874,59.396201899999994,24.6605964,2.2840302,-1.2555256,-2.710601,-0.021752972,-0.012412676,-0.03908609,-0.02357597,0.009879278,-0.14906763,-0.12284705,-0.0076688584,-0.002126247,-0.016722856,0.16015573,0.026007058,-0.15216736,-0.16286418,-0.0043945326,28.056198,0.11038756,0.1835656,0.18231133,0.109292716,0.081644654,inf,inf,inf,inf,1,1,1,1,2,2,2,2,2,0,1,1,0,0,0
566779214,566777597,68467874,59.396201899999994,24.6605964,2.2838738,-1.2555975,-2.7116218,-0.021752972,-0.012412676,-0.03908609,-0.02433473,0.009584849,-0.14780606,-0.12143437,-0.0076688584,-0.002126247,-0.016722856,-0.094173096,-0.000679238,0.1670635,-0.16289362,-0.0043945326,28.056198,0.110023975,0.18428026,0.1828735,0.10971967,0.08185171,inf,inf,inf,inf,1,1,1,1,2,2,2,2,2,0,1,1,0,0,0
566788227,566787481,68467874,59.396201899999994,24.6605964,2.283716,-1.2556707,-2.7126508,-0.021752972,-0.012412676,-0.03908609,-0.023833675,0.008200073,-0.14763896,-0.121133514,-0.0076688584,-0.002126247,-0.016722856,-0.048569616,-0.21120197,0.08390312,-0.16290787,-0.0043945326,28.056198,0.10966635,0.18499993,0.18343821,0.11014989,0.08205874,inf,inf,inf,inf,1,1,1,1,2,2,2,2,2,0,1,1,0,0,0
566798374,566797366,68467874,59.396201899999994,24.6605964,2.2835588,-1.2557447,-2.7136984,-0.021752972,-0.012412676,-0.03908609,-0.023006566,0.008262026,-0.14866711,-0.12204455,-0.0076688584,-0.002126247,-0.016722856,0.15100975,-0.13427447,-0.073058315,-0.16288848,-0.0043945326,28.056198,0.10932517,0.1857246,0.18400544,0.11057856,0.08226592,inf,inf,inf,inf,1,1,1,1,2,2,2,2,2,0,1,1,0,0,0
566808080,566807251,68467874,59.396201899999994,24.6605964,2.2834013,-1.255814,-2.7147653,-0.021752972,-0.012412676,-0.03908609,-0.024070844,0.008437329,-0.1488629,-0.12213922,-0.0076688584,-0.002126247,-0.016722856,-0.13843058,-0.088099845,-0.013474772,-0.16285317,-0.0043945326,28.056198,0.10900259,0.18645428,0.18457519,0.11100788,0.08247315,inf,inf,inf,inf,1,1,1,1,2,2,2,2,2,0,1,1,0,0,0
566818305,566817136,68467874,59.396201899999994,24.6605964,2.2832453,-1.2558792,-2.71595,-0.021752972,-0.012412676,-0.03908609,-0.022761162,0.008379817,-0.14884615,-0.1221461,-0.0076688584,-0.002126247,-0.016722856,-0.02902163,-0.08084424,-0.048582785,-0.16282327,-0.0043945326,28.056198,0.106107235,0.18718898,0.18488894,0.111441255,0.08262345,inf,inf,inf,inf,1,1,1,1,2,2,2,2,2,0,1,1,0,0,0
566828214,566827021,68467874,59.396201899999994,24.6605964,2.283082,-1.2559434,-2.7171507,-0.021752972,-0.012412676,-0.03908609,-0.023570912,0.008328056,-0.14960738,-0.12294098,-0.0076688584,-0.002126247,-0.016722856,0.14443927,-0.017510332,-0.1041539,-0.16287924,-0.0043945326,28.056198,0.10589886,0.18792875,0.18546295,0.111872286,0.08283092,inf,inf,inf,inf,1,1,1,1,2,2,2,2,2,0,1,1,0,0,0
566838180,566836905,68467874,59.396201899999994,24.6605964,2.2829216,-1.2560035,-2.71837,-0.021752972,-0.012412676,-0.03908609,-0.024158986,0.008607322,-0.15140341,-0.12478025,-0.0076688584,-0.002126247,-0.016722856,-0.3139848,0.04788603,-0.2844355,-0.16292511,-0.0043945326,28.056198,0.105704784,0.18867357,0.18603948,0.11230552,0.08303839,inf,inf,inf,inf,1,1,1,1,2,2,2,2,2,0,1,1,0,0,0
566848284,566846790,68467874,59.396201899999994,24.6605964,2.2827563,-1.2560567,-2.7196085,-0.021752972,-0.012412676,-0.03908609,-0.0224504,0.008109944,-0.1514085,-0.12483778,-0.0076688584,-0.002126247,-0.016722856,0.26342425,-0.21610521,-0.057288196,-0.16293503,-0.0043945326,28.056198,0.1055212,0.18942346,0.18661854,0.11274093,0.083245784,inf,inf,inf,inf,1,1,1,1,2,2,2,2,2,0,1,1,0,0,0
566859594,566856675,68467874,59.396201899999994,24.6605964,2.2825594,-1.256056,-2.7203403,-0.021752972,-0.012412676,-0.03908609,-0.02363075,0.00821695,-0.15142708,-0.12437615,-0.0076688584,-0.002126247,-0.016722856,-0.025354702,0.06974034,-0.10479073,-0.16293249,-0.0043945326,28.056198,0.1178565,0.18102725,0.18051799,0.10775764,0.08095003,inf,inf,inf,inf,1,1,1,1,2,2,2,2,2,0,1,1,0,0,0
566868399,566866559,68467874,59.396201899999994,24.6605964,2.28236,-1.2560515,-2.7210996,-0.021752972,-0.012412676,-0.03908609,-0.024305802,0.007893658,-0.15205023,-0.12455074,-0.0076688584,-0.002126247,-0.016722856,-0.2789958,-0.09267745,-0.14937754,-0.16289642,-0.0043945326,28.056198,0.1172421,0.1817241,0.1810718,0.10818871,0.081156805,inf,inf,inf,inf,1,1,1,1,2,2,2,2,2,0,1,1,0,0,0
566878476,566876444,68467874,59.396201899999994,24.6605964,2.2821605,-1.2560427,-2.7219982,-0.021752972,-0.012412676,-0.03908609,-0.022213707,0.008959942,-0.15200657,-0.12420132,-0.0076688584,-0.002126247,-0.016722856,0.3084402,0.07870541,0.03978987,-0.16285011,-0.0043945326,28.056198,0.11400223,0.18242593,0.18138406,0.10861208,0.08131095,inf,inf,inf,inf,1,1,1,1,2,2,2,2,2,0,1,1,0,0,0
566888179,566886329,68467874,59.396201899999994,24.6605964,2.2819676,-1.2560341,-2.7229114,-0.021752972,-0.012412676,-0.03908609,-0.02352475,0.009055941,-0.1518702,-0.12378367,-0.0076688584,-0.002126247,-0.016722856,-0.18268657,0.2763421,-0.091703735,-0.16286607,-0.0043945326,28.056198,0.11353159,0.18313271,0.18194215,0.109039456,0.08151791,inf,inf,inf,inf,1,1,1,1,2,2,2,2,2,0,1,1,0,0,0
566898259,566896214,68467874,59.396201899999994,24.6605964,2.281771,-1.2560239,-2.7238445,-0.021752972,-0.012412676,-0.03908609,-0.023616266,0.0083202,-0.15222238,-0.12387811,-0.0076688584,-0.002126247,-0.016722856,-0.20299377,0.054235857,-0.1204154,-0.162927,-0.0043945326,28.056198,0.11307359,0.18384448,0.18250278,0.109470695,0.081724934,inf,inf,inf,inf,1,1,1,1,2,2,2,2,2,0,1,1,0,0,0
566907810,566906099,68467874,59.396201899999994,24.6605964,2.281572,-1.2560158,-2.724805,-0.021752972,-0.012412676,-0.03908609,-0.02228291,0.0077576893,-0.15348883,-0.12490949,-0.0076688584,-0.002126247,-0.016722856,0.2520188,-0.0018014543,-0.13680728,-0.16295613,-0.0043945326,28.056198,0.112636805,0.18456127,0.18306592,0.10989841,0.08193186,inf,inf,inf,inf,1,1,1,1,2,2,2,2,2,0,1,1,0,0,0
566917810,566915983,68467874,59.396201899999994,24.6605964,2.2813792,-1.2560112,-2.7257898,-0.021752972,-0.012412676,-0.03908609,-0.023162847,0.0076687485,-0.15333922,-0.12454658,-0.0076688584,-0.002126247,-0.016722856,-0.13230544,0.11934189,-0.020282887,-0.16294816,-0.0043945326,28.056198,0.112221956,0.18528305,0.18363157,0.11032818,0.08213907,inf,inf,inf,inf,1,1,1,1,2,2,2,2,2,0,1,1,0,0,0
566926495,566925868,68467874,59.396201899999994,24.6605964,2.28119,-1.2560058,-2.7267916,-0.021752972,-0.012412676,-0.03908609,-0.022215405,0.007952205,-0.15331069,-0.12432572,-0.0076688584,-0.002126247,-0.016722856,-0.10003016,0.21409412,0.0026884791,-0.16290367,-0.0043945326,28.056198,0.11181569,0.18600984,0.18419977,0.11076144,0.08234618,inf,inf,inf,inf,1,1,1,1,2,2,2,2,2,0,1,1,0,0,0
566936411,566935753,68467874,59.396201899999994,24.6605964,2.2809951,-1.2559968,-2.7278173,-0.021752972,-0.012412676,-0.03908609,-0.022356838,0.007432931,-0.15474994,-0.12559278,-0.0076688584,-0.002126247,-0.016722856,0.14708218,0.019301679,-0.15807416,-0.16285545,-0.0043945326,28.056198,0.111418724,0.18674168,0.18477048,0.111196525,0.082553364,inf,inf,inf,inf,1,1,1,1,2,2,2,2,2,0,1,1,0,0,0
566946317,566945638,68467874,59.396201899999994,24.6605964,2.2808022,-1.2559899,-2.7289667,-0.021752972,-0.012412676,-0.03908609,-0.023154331,0.0075116567,-0.15599021,-0.12677716,-0.0076688584,-0.002126247,-0.016722856,-0.17571142,0.13106252,-0.15378249,-0.1628684,-0.0043945326,28.056198,0.10875511,0.18747859,0.18508437,0.111627676,0.082703695,inf,inf,inf,inf,1,1,1,1,2,2,2,2,2,0,1,1,0,0,0
566956215,566955523,68467874,59.396201899999994,24.6605964,2.280608,-1.2559793,-2.7301302,-0.021752972,-0.012412676,-0.03908609,-0.022189189,0.0075756824,-0.15545788,-0.12620331,-0.0076688584,-0.002126247,-0.016722856,0.059829056,0.06896932,-0.0356072,-0.16292398,-0.0043945326,28.056198,0.10847497,0.18822053,0.18565935,0.1120598,0.082911,inf,inf,inf,inf,1,1,1,1,2,2,2,2,2,0,1,1,0,0,0
566966118,566965407,68467874,59.396201899999994,24.6605964,2.2804115,-1.2559649,-2.7313054,-0.021752972,-0.012412676,-0.03908609,-0.021924388,0.0073709795,-0.15594701,-0.12666476,-0.0076688584,-0.002126247,-0.016722856,0.30568567,-0.094361864,-0.1443371,-0.16297327,-0.0043945326,28.056198,0.10820031,0.18896754,0.18623683,0.11249396,0.083118446,inf,inf,inf,inf,1,1,1,1,2,2,2,2,2,0,1,1,0,0,0
566978699,566975294,68467874,59.396201899999994,24.6605964,2.28019,-1.2558508,-2.7320569,-0.021752972,-0.012412676,-0.03908609,-0.024458718,0.0077215987,-0.15676472,-0.12700418,-0.0076688584,-0.002126247,-0.016722856,-0.47015563,0.166872,-0.12685993,-0.16297632,-0.0043945326,28.056198,0.11867738,0.18063834,0.18017523,0.107548594,0.080837265,inf,inf,inf,inf,1,1,1,1,2,2,2,2,2,0,1,1,0,0,0
566985964,566985177,68467874,59.396201899999994,24.6605964,2.2799683,-1.2557367,-2.7328343,-0.021752972,-0.012412676,-0.03908609,-0.020043833,0.007126546,-0.15641941,-0.12621322,-0.0076688584,-0.002126247,-0.016722856,0.6812319,-0.042772356,-0.1220674,-0.16293788,-0.0043945326,28.056198,0.11805344,0.18133275,0.18072765,0.10797513,0.08104385,inf,inf,inf,inf,1,1,1,1,2,2,2,2,2,0,1,1,0,0,0
566995926,566995062,68467874,59.396201899999994,24.6605964,2.27974,-1.2556192,-2.7336354,-0.021752972,-0.012412676,-0.03908609,-0.027574386,0.0073642484,-0.15668513,-0.12606472,-0.0076688584,-0.002126247,-0.016722856,-0.91799325,-0.16849439,-0.2078606,-0.16291118,-0.0043945326,28.056198,0.11744666,0.18203214,0.18128258,0.10840371,0.08125062,inf,inf,inf,inf,1,1,1,1,2,2,2,2,2,0,1,1,0,0,0
567005939,567004947,68467874,59.396201899999994,24.6605964,2.2794945,-1.2554991,-2.7345724,-0.021752972,-0.012412676,-0.03908609,-0.022453878,0.0070268568,-0.15665974,-0.12576492,-0.0076688584,-0.002126247,-0.016722856,0.67216706,-0.4078504,-0.1517024,-0.16287167,-0.0043945326,28.056198,0.11427331,0.18273649,0.1815951,0.10883517,0.08140473,inf,inf,inf,inf,1,1,1,1,2,2,2,2,2,0,1,1,0,0,0
567015955,567014833,68467874,59.396201899999994,24.6605964,2.2792497,-1.2553829,-2.7355409,-0.021752972,-0.012412676,-0.03908609,-0.027754467,0.0075328513,-0.1593951,-0.12825026,-0.0076688584,-0.002126247,-0.016722856,-0.4494356,-0.24024181,-0.41781083,-0.16291623,-0.0043945326,28.056198,0.11380482,0.18344583,0.18215431,0.109262854,0.08161162,inf,inf,inf,inf,1,1,1,1,2,2,2,2,2,0,1,1,0,0,0
567025298,567024716,68467874,59.396201899999994,24.6605964,2.2789876,-1.2552739,-2.7365408,-0.021752972,-0.012412676,-0.03908609,-0.026817871,0.008986769,-0.15975018,-0.12837876,-0.0076688584,-0.002126247,-0.016722856,-0.05819851,0.5019675,-0.06592967,-0.16298531,-0.0043945326,28.056198,0.11336541,0.18416017,0.18271606,0.10969101,0.0818187,inf,inf,inf,inf,1,1,1,1,2,2,2,2,2,0,1,1,0,0,0
567035151,567034601,68467874,59.396201899999994,24.6605964,2.2787192,-1.2551509,-2.7375622,-0.021752972,-0.012412676,-0.03908609,-0.029128183,0.011033343,-0.15949202,-0.12791657,-0.0076688584,-0.002126247,-0.016722856,-0.31291494,0.676538,-0.16304925,-0.16293979,-0.0043945326,28.056198,0.11293769,0.18487951,0.18328032,0.110124916,0.08202579,inf,inf,inf,inf,1,1,1,1,2,2,2,2,2,0,1,1,0,0,0
567045318,567044487,68467874,59.396201899999994,24.6605964,2.27848,-1.2550001,-2.7385995,-0.021752972,-0.012412676,-0.03908609,-0.024007298,0.008779725,-0.15839127,-0.12663347,-0.0076688584,-0.002126247,-0.016722856,-0.22243652,-0.80436623,-0.008031913,-0.16289857,-0.0043945326,28.056198,0.11251068,0.1856039,0.18384711,0.110557996,0.08223287,inf,inf,inf,inf,1,1,1,1,2,2,2,2,2,0,1,1,0,0,0
567055136,567054371,68467874,59.396201899999994,24.6605964,2.2782216,-1.2548782,-2.7396488,-0.021752972,-0.012412676,-0.03908609,-0.02759031,0.006267797,-0.1597185,-0.12779915,-0.0076688584,-0.002126247,-0.016722856,-0.08125151,-0.84672785,-0.07546808,-0.16303156,-0.0043945326,28.056198,0.112089396,0.1863333,0.18441641,0.11098693,0.082440175,inf,inf,inf,inf,1,1,1,1,2,2,2,2,2,0,1,1,0,0,0
567065060,567064255,68467874,59.396201899999994,24.6605964,2.2779648,-1.2547709,-2.740753,-0.021752972,-0.012412676,-0.03908609,-0.026507763,0.007425707,-0.16514358,-0.1330827,-0.0076688584,-0.002126247,-0.016722856,-0.12421557,-0.056933284,-0.5431118,-0.16296513,-0.0043945326,28.056198,0.11171961,0.18706775,0.18498826,0.11141943,0.08264752,inf,inf,inf,inf,1,1,1,1,2,2,2,2,2,0,1,1,0,0,0
567075118,567074140,68467874,59.396201899999994,24.6605964,2.2777255,-1.2546579,-2.7419853,-0.021752972,-0.012412676,-0.03908609,-0.024217809,0.0068240473,-0.16222416,-0.1301349,-0.0076688584,-0.002126247,-0.016722856,-0.00060541625,-0.34975958,0.45903805,-0.16308522,-0.0043945326,28.056198,0.109163046,0.18780725,0.18530236,0.11185298,0.08279725,inf,inf,inf,inf,1,1,1,1,2,2,2,2,2,0,1,1,0,0,0
567084812,567084025,68467874,59.396201899999994,24.6605964,2.277481,-1.2545538,-2.743224,-0.021752972,-0.012412676,-0.03908609,-0.024831418,0.0072251833,-0.16541941,-0.13331619,-0.0076688584,-0.002126247,-0.016722856,0.18398792,-0.0026616408,-0.25399172,-0.16315725,-0.0043945326,28.056198,0.10890627,0.18855181,0.18587844,0.11228489,0.083005086,inf,inf,inf,inf,1,1,1,1,2,2,2,2,2,0,1,1,0,0,0
567094775,567093910,68467874,59.396201899999994,24.6605964,2.277222,-1.254436,-2.74449,-0.021752972,-0.012412676,-0.03908609,-0.025484879,0.0067946254,-0.16310924,-0.13100585,-0.0076688584,-0.002126247,-0.016722856,0.61667144,-0.72971326,0.5739725,-0.16316941,-0.0043945326,28.056198,0.10867429,0.18930142,0.18645705,0.11271706,0.08321201,inf,inf,inf,inf,1,1,1,1,2,2,2,2,2,0,1,1,0,0,0
567104439,567103795,68467874,59.396201899999994,24.6605964,2.276984,-1.2543358,-2.7457461,-0.021752972,-0.012412676,-0.03908609,-0.022015424,0.0081400545,-0.16524625,-0.13315593,-0.0076688584,-0.002126247,-0.016722856,0.6300092,0.19012542,-0.3877854,-0.16324973,-0.0043945326,28.056198,0.10842919,0.19005613,0.1870382,0.113151036,0.08342004,inf,inf,inf,inf,1,1,1,1,2,2,2,2,2,0,1,1,0,0,0
567114870,567113679,68467874,59.396201899999994,24.6605964,2.276784,-1.2543129,-2.7466254,-0.021752972,-0.012412676,-0.03908609,-0.024859328,0.008826825,-0.17405654,-0.14149077,-0.0076688584,-0.002126247,-0.016722856,0.037445925,-0.10773834,0.018533412,-0.16323316,-0.0043945326,28.056198,0.11986756,0.1815615,0.18089353,0.108109415,0.08110538,inf,inf,inf,inf,1,1,1,1,2,2,2,2,2,0,1,1,0,0,0
567124192,567123564,68467874,59.396201899999994,24.6605964,2.2765777,-1.2543055,-2.74749,-0.021752972,-0.012412676,-0.03908609,-0.027881974,0.00999032,-0.16585095,-0.13284336,-0.0076688584,-0.002126247,-0.016722856,-1.1384543,1.0653592,0.33457476,-0.16323985,-0.0043945326,28.056198,0.11926651,0.18226245,0.1814492,0.10853669,0.081312194,inf,inf,inf,inf,1,1,1,1,2,2,2,2,2,0,1,1,0,0,0
567134093,567133455,68467874,59.396201899999994,24.6605964,2.2763276,-1.254279,-2.748471,-0.021752972,-0.012412676,-0.03908609,-0.025816303,0.009479636,-0.17101362,-0.13768761,-0.0076688584,-0.002126247,-0.016722856,1.0402254,0.3637544,-0.65125096,-0.1631332,-0.0043945326,28.056198,0.11653876,0.18296835,0.1817618,0.10896697,0.08146583,inf,inf,inf,inf,1,1,1,1,2,2,2,2,2,0,1,1,0,0,0
567144178,567143341,68467874,59.396201899999994,24.6605964,2.276113,-1.2542534,-2.7495332,-0.021752972,-0.012412676,-0.03908609,-0.026263332,0.008126628,-0.17997615,-0.14635895,-0.0076688584,-0.002126247,-0.016722856,-0.3479008,-0.024408909,-1.5239016,-0.16316012,-0.0043945326,28.056198,0.11612129,0.18367925,0.18232176,0.10938925,0.08167325,inf,inf,inf,inf,1,1,1,1,2,2,2,2,2,0,1,1,0,0,0
567154021,567153219,68467874,59.396201899999994,24.6605964,2.2759051,-1.2542367,-2.7506394,-0.021752972,-0.012412676,-0.03908609,-0.020561485,0.007400545,-0.17120174,-0.13731955,-0.0076688584,-0.002126247,-0.016722856,1.0080763,0.092076495,1.2474632,-0.1632057,-0.0043945326,28.056198,0.11574793,0.18439513,0.18288425,0.10982182,0.081880115,inf,inf,inf,inf,1,1,1,1,2,2,2,2,2,0,1,1,0,0,0
567163905,567163103,68467874,59.396201899999994,24.6605964,2.2756886,-1.2542146,-2.7517793,-0.021752972,-0.012412676,-0.03908609,-0.030195205,0.0052237157,-0.18313394,-0.14901195,-0.0076688584,-0.002126247,-0.016722856,-0.5623677,-0.99523544,-1.9208702,-0.16338164,-0.0043945326,28.056198,0.11537266,0.18511605,0.18344927,0.11026879,0.08208734,inf,inf,inf,inf,1,1,1,1,2,2,2,2,2,0,1,1,0,0,0
567173851,567172990,68467874,59.396201899999994,24.6605964,2.2754693,-1.2541993,-2.752987,-0.021752972,-0.012412676,-0.03908609,-0.023594717,0.006542485,-0.17690362,-0.14256606,-0.0076688584,-0.002126247,-0.016722856,-0.23944262,-0.5126935,2.7326186,-0.16358516,-0.0043945326,28.056198,0.115045786,0.18584204,0.1840168,0.11069164,0.08229475,inf,inf,inf,inf,1,1,1,1,2,2,2,2,2,0,1,1,0,0,0
567183725,567182879,68467874,59.396201899999994,24.6605964,2.275205,-1.2541856,-2.7541983,-0.021752972,-0.012412676,-0.03908609,-0.032656778,0.0032587065,-0.18446057,-0.14993069,-0.0076688584,-0.002126247,-0.016722856,0.20329194,-1.5250084,-1.0328432,-0.16376944,-0.0043945326,28.056198,0.11625719,0.18657303,0.18458687,0.11112884,0.08250202,inf,inf,inf,inf,1,1,1,1,2,2,2,2,2,0,1,1,0,0,0
567193652,567192758,68467874,59.396201899999994,24.6605964,2.2749922,-1.2542102,-2.7554736,-0.021752972,-0.012412676,-0.03908609,-0.027762232,0.011403815,-0.19086452,-0.1561647,-0.0076688584,-0.002126247,-0.016722856,-1.6854335,2.5803177,-1.3618467,-0.16409554,-0.0043945326,28.056198,0.11753249,0.18730909,0.18515944,0.111552924,0.08270939,inf,inf,inf,inf,1,1,1,1,2,2,2,2,2,0,1,1,0,0,0
567203307,567202643,68467874,59.396201899999994,24.6605964,2.2747378,-1.2542468,-2.7568505,-0.021752972,-0.012412676,-0.03908609,-0.028179685,-0.00033962546,-0.18131436,-0.14655459,-0.0076688584,-0.002126247,-0.016722856,0.106103934,0.5223669,1.2122008,-0.1642278,-0.0043945326,28.056198,0.11890936,0.18805017,0.18547359,0.1119915,0.08285942,inf,inf,inf,inf,1,1,1,1,2,2,2,2,2,0,1,1,0,0,0
567214425,567212527,68467874,59.396201899999994,24.6605964,2.2745101,-1.2542518,-2.7582724,-0.021752972,-0.012412676,-0.03908609,-0.02567744,-0.0035496438,-0.19004817,-0.15524521,-0.0076688584,-0.002126247,-0.016722856,0.08128343,-2.788252,-0.27336216,-0.16437252,-0.0043945326,28.056198,0.12033129,0.18879633,0.18605043,0.112454385,0.08306673,inf,inf,inf,inf,1,1,1,1,2,2,2,2,2,0,1,1,0,0,0
567223311,567222413,68467874,59.396201899999994,24.6605964,2.2742867,-1.2542611,-2.7597544,-0.021752972,-0.012412676,-0.03908609,-0.022759244,0.011345902,-0.20042254,-0.16559255,-0.0076688584,-0.002126247,-0.016722856,0.86103684,1.9185544,-2.4919722,-0.16448334,-0.0043945326,28.056198,0.1218133,0.1895477,0.18662977,0.11285498,0.08327402,inf,inf,inf,inf,1,1,1,1,2,2,2,2,2,0,1,1,0,0,0
567233212,567232298,68467874,59.396201899999994,24.6605964,2.2740636,-1.2542543,-2.761261,-0.021752972,-0.012412676,-0.03908609,-0.029331556,0.010569545,-0.19129023,-0.15644872,-0.0076688584,-0.002126247,-0.016722856,-0.9037422,1.9777842,0.6478498,-0.16457073,-0.0043945326,28.056198,0.123319864,0.190304,0.18721166,0.11331533,0.08348199,inf,inf,inf,inf,1,1,1,1,2,2,2,2,2,0,1,1,0,0,0
567243148,567242182,68467874,59.396201899999994,24.6605964,2.273839,-1.2542202,-2.7628639,-0.021752972,-0.012412676,-0.03908609,-0.021885213,0.005913653,-0.20685132,-0.17201312,-0.0076688584,-0.002126247,-0.016722856,0.80237746,-0.89666027,0.40253228,-0.16474906,-0.0043945326,28.056198,0.12492275,0.1910655,0.18779609,0.11376929,0.08368966,inf,inf,inf,inf,1,1,1,1,2,2,2,2,2,0,1,1,0,0,0
567253202,567252074,68467874,59.396201899999994,24.6605964,2.273614,-1.2541704,-2.7644613,-0.021752972,-0.012412676,-0.03908609,-0.029694667,0.0073357597,-0.20203228,-0.16721155,-0.0076688584,-0.002126247,-0.016722856,-0.45063835,-0.95743704,-2.2022364,-0.16508733,-0.0043945326,28.056198,0.12652016,0.19183223,0.18838304,0.114186786,0.08389813,inf,inf,inf,inf,1,1,1,1,2,2,2,2,2,0,1,1,0,0,0
567264533,567261952,68467874,59.396201899999994,24.6605964,2.27334,-1.2540212,-2.7656147,-0.021752972,-0.012412676,-0.03908609,-0.023076404,0.007055265,-0.22700378,-0.19158824,-0.0076688584,-0.002126247,-0.016722856,1.2059636,-0.8979988,-2.1366534,-0.16532016,-0.0043945326,28.056198,0.12767363,0.18306656,0.18209848,0.10900433,0.08152951,inf,inf,inf,inf,1,1,1,1,2,2,2,2,2,0,1,1,0,0,0
567273066,567271837,68467874,59.396201899999994,24.6605964,2.2731495,-1.2538655,-2.7670524,-0.021752972,-0.012412676,-0.03908609,-0.02231062,0.0074014827,-0.22629027,-0.1904622,-0.0076688584,-0.002126247,-0.016722856,-1.0284989,-1.238755,-0.42644164,-0.16530555,-0.0043945326,28.056198,0.12911129,0.18377763,0.1824111,0.10939937,0.081683114,inf,inf,inf,inf,1,1,1,1,2,2,2,2,2,0,1,1,0,0,0
567282826,567281721,68467874,59.396201899999994,24.6605964,2.272917,-1.2537158,-2.7685869,-0.021752972,-0.012412676,-0.03908609,-0.024376392,0.016018946,-0.24371678,-0.20750841,-0.0076688584,-0.002126247,-0.016722856,-0.046759598,1.25568,-1.6858633,-0.16505477,-0.0043945326,28.056198,0.13064575,0.18449354,0.18297371,0.10987617,0.08188985,inf,inf,inf,inf,1,1,1,1,2,2,2,2,2,0,1,1,0,0,0
567292907,567291605,68467874,59.396201899999994,24.6605964,2.2726912,-1.253527,-2.7702403,-0.021752972,-0.012412676,-0.03908609,-0.021074886,0.020137351,-0.24091873,-0.2043611,-0.0076688584,-0.002126247,-0.016722856,1.0952652,1.5502255,-0.3263326,-0.16482398,-0.0043945326,28.056198,0.13229918,0.18521468,0.18353887,0.11030286,0.08209687,inf,inf,inf,inf,1,1,1,1,2,2,2,2,2,0,1,1,0,0,0
567302069,567301490,68467874,59.396201899999994,24.6605964,2.2725189,-1.2533523,-2.7719362,-0.021752972,-0.012412676,-0.03908609,-0.014306138,0.012405307,-0.2620283,-0.22515126,-0.0076688584,-0.002126247,-0.016722856,0.8017423,-0.12678751,-3.904116,-0.16445522,-0.0043945326,28.056198,0.13399506,0.18594082,0.18410653,0.11071536,0.08230467,inf,inf,inf,inf,1,1,1,1,2,2,2,2,2,0,1,1,0,0,0
567312101,567311376,68467874,59.396201899999994,24.6605964,2.2723954,-1.2531986,-2.774035,-0.021752972,-0.012412676,-0.03908609,-0.01333674,0.0070028934,-0.29235944,-0.25519162,-0.0076688584,-0.002126247,-0.016722856,0.20518725,-1.7204188,-0.9939436,-0.16442755,-0.0043945326,28.056198,0.13609385,0.1866719,0.18467672,0.11117382,0.08251225,inf,inf,inf,inf,1,1,1,1,2,2,2,2,2,0,1,1,0,0,0
567322065,567321260,68467874,59.396201899999994,24.6605964,2.2722366,-1.2530533,-2.7762537,-0.021752972,-0.012412676,-0.03908609,-0.018263401,0.009766551,-0.28477836,-0.24734735,-0.0076688584,-0.002126247,-0.016722856,-0.059866767,-0.53002137,2.2706175,-0.16432308,-0.0043945326,28.056198,0.13831258,0.18740815,0.18524945,0.11164475,0.08271953,inf,inf,inf,inf,1,1,1,1,2,2,2,2,2,0,1,1,0,0,0
567332000,567331144,68467874,59.396201899999994,24.6605964,2.272104,-1.2528708,-2.7786381,-0.021752972,-0.012412676,-0.03908609,-0.009826922,0.011341316,-0.2895431,-0.2520878,-0.0076688584,-0.002126247,-0.016722856,0.8593455,-0.9493498,-1.2356459,-0.16421834,-0.0043945326,28.056198,0.140697,0.18814962,0.18556334,0.11202495,0.08286874,inf,inf,inf,inf,1,1,1,1,2,2,2,2,2,0,1,1,0,0,0
567341838,567341033,68467874,59.396201899999994,24.6605964,2.2720575,-1.2527368,-2.7813678,-0.021752972,-0.012412676,-0.03908609,-0.005200967,0.0026711763,-0.3444495,-0.3069862,-0.0076688584,-0.002126247,-0.016722856,-0.45957953,-1.2832217,-4.9649982,-0.16443115,-0.0043945326,28.056198,0.14342666,0.18889593,0.1861403,0.11252878,0.08307729,inf,inf,inf,inf,1,1,1,1,2,2,2,2,2,0,1,1,0,0,0
567351951,567350914,68467874,59.396201899999994,24.6605964,2.2720284,-1.2526773,-2.784568,-0.021752972,-0.012412676,-0.03908609,-0.005518514,0.0024170512,-0.38207978,-0.34462422,-0.0076688584,-0.002126247,-0.016722856,-0.71693754,0.6117448,-3.2842147,-0.16455981,-0.0043945326,28.056198,0.14662695,0.18964763,0.18671979,0.11293997,0.08328411,inf,inf,inf,inf,1,1,1,1,2,2,2,2,2,0,1,1,0,0,0
567362329,567360799,68467874,59.396201899999994,24.6605964,2.2719572,-1.2526778,-2.7873473,-0.021752972,-0.012412676,-0.03908609,-0.009291935,0.0062719113,-0.39148676,-0.3534068,-0.0076688584,-0.002126247,-0.016722856,-1.0463339,1.5265151,-1.7944777,-0.16441672,-0.0043945326,28.056198,0.1494062,0.18121453,0.18060894,0.10799861,0.08098495,inf,inf,inf,inf,1,1,1,1,2,2,2,2,2,0,1,1,0,0,0
567371550,567370690,68467874,59.396201899999994,24.6605964,2.2718756,-1.2526876,-2.790261,-0.021752972,-0.012412676,-0.03908609,-0.006631972,0.0051079127,-0.40113905,-0.36247677,-0.0076688584,-0.002126247,-0.016722856,0.06483054,1.3794116,-1.5695821,-0.16426729,-0.0043945326,28.056198,0.15231991,0.18191306,0.18116313,0.10842458,0.08119205,inf,inf,inf,inf,1,1,1,1,2,2,2,2,2,0,1,1,0,0,0
567381199,567380577,68467874,59.396201899999994,24.6605964,2.2718513,-1.252721,-2.793372,-0.021752972,-0.012412676,-0.03908609,0.0022103298,-3.0394644e-05,-0.42705166,-0.3878477,-0.0076688584,-0.002126247,-0.016722856,0.7634883,0.46998167,-3.3586469,-0.16418372,-0.0043945326,28.056198,0.1554308,0.18261658,0.18171984,0.108909145,0.08139873,inf,inf,inf,inf,1,1,1,1,2,2,2,2,2,0,1,1,0,0,0
567391566,567390453,68467874,59.396201899999994,24.6605964,2.2719054,-1.2527882,-2.7968235,-0.021752972,-0.012412676,-0.03908609,0.0074528093,-0.006551752,-0.4674323,-0.42772567,-0.0076688584,-0.002126247,-0.016722856,0.12278968,-0.60366845,-5.3655105,-0.16423042,-0.0043945326,28.056198,0.15888238,0.18332532,0.18227907,0.109328225,0.08160613,inf,inf,inf,inf,1,1,1,1,2,2,2,2,2,0,1,1,0,0,0
567400964,567400338,68467874,59.396201899999994,24.6605964,2.2719414,-1.2529191,-2.8010018,-0.021752972,-0.012412676,-0.03908609,-0.0017961229,-0.016518848,-0.51814526,-0.47816697,-0.0076688584,-0.002126247,-0.016722856,-1.2256035,-1.6070136,-4.6784873,-0.16443558,-0.0043945326,28.056198,0.16306067,0.18403904,0.18259183,0.10983219,0.081760116,inf,inf,inf,inf,1,1,1,1,2,2,2,2,2,0,1,1,0,0,0
567411062,567410223,68467874,59.396201899999994,24.6605964,2.271897,-1.2530866,-2.8056102,-0.021752972,-0.012412676,-0.03908609,-0.0063918587,-0.018474247,-0.54847115,-0.50824904,-0.0076688584,-0.002126247,-0.016722856,-0.27249953,-1.5733942,-2.4332955,-0.16451322,-0.0043945326,28.056198,0.16766906,0.18475808,0.18315534,0.110352315,0.0819677,inf,inf,inf,inf,1,1,1,1,2,2,2,2,2,0,1,1,0,0,0
567420865,567420108,68467874,59.396201899999994,24.6605964,2.2719123,-1.2532941,-2.8105376,-0.021752972,-0.012412676,-0.03908609,0.0077030784,-0.024638712,-0.5769236,-0.53648436,-0.0076688584,-0.002126247,-0.016722856,1.1466488,-1.6317825,-2.5007222,-0.16453353,-0.0043945326,28.056198,0.17259645,0.18548258,0.1837214,0.11075518,0.08217451,inf,inf,inf,inf,1,1,1,1,2,2,2,2,2,0,1,1,0,0,0
567431126,567429992,68467874,59.396201899999994,24.6605964,2.271983,-1.2535577,-2.8157349,-0.021752972,-0.012412676,-0.03908609,0.006930675,-0.02482097,-0.60442984,-0.5637992,-0.0076688584,-0.002126247,-0.016722856,-0.11898753,-0.0185694,-2.9526322,-0.16445944,-0.0043945326,28.056198,0.17779374,0.186212,0.18428996,0.11121297,0.082382694,inf,inf,inf,inf,1,1,1,1,2,2,2,2,2,0,1,1,0,0,0
567440634,567439876,68467874,59.396201899999994,24.6605964,2.272022,-1.2538412,-2.8213484,-0.021752972,-0.012412676,-0.03908609,0.0025419444,-0.027804032,-0.65592283,-0.6151255,-0.0076688584,-0.002126247,-0.016722856,-0.16364521,-0.20684442,-5.2851496,-0.16433404,-0.0043945326,28.056198,0.1834073,0.18694659,0.18486106,0.11181064,0.08259089,inf,inf,inf,inf,1,1,1,1,2,2,2,2,2,0,1,1,0,0,0
567450927,567449763,68467874,59.396201899999994,24.6605964,2.2720084,-1.2541702,-2.8273766,-0.021752972,-0.012412676,-0.03908609,-0.0013685911,-0.030966436,-0.6827519,-0.6418115,-0.0076688584,-0.002126247,-0.016722856,0.26190388,0.37346348,-2.1524014,-0.16403112,-0.0043945326,28.056198,0.18943548,0.18768701,0.18543468,0.112370126,0.082798705,inf,inf,inf,inf,1,1,1,1,2,2,2,2,2,0,1,1,0,0,0
567460595,567459646,68467874,59.396201899999994,24.6605964,2.2719603,-1.2545255,-2.8338869,-0.021752972,-0.012412676,-0.03908609,-0.0001564537,-0.03572294,-0.71986943,-0.6789918,-0.0076688584,-0.002126247,-0.016722856,1.6560535,-0.07063744,-4.6469135,-0.16355345,-0.0043945326,28.056198,0.19594574,0.1884331,0.1857487,0.11282839,0.082948156,inf,inf,inf,inf,1,1,1,1,2,2,2,2,2,0,1,1,0,0,0
567470396,567469531,68467874,59.396201899999994,24.6605964,2.2719426,-1.2549118,-2.84076,-0.021752972,-0.012412676,-0.03908609,0.0031349706,-0.035444904,-0.75771403,-0.71691316,-0.0076688584,-0.002126247,-0.016722856,1.4410988,0.8529238,-5.288838,-0.16310185,-0.0043945326,28.056198,0.20281887,0.1891844,0.18632658,0.11329873,0.08315653,inf,inf,inf,inf,1,1,1,1,2,2,2,2,2,0,1,1,0,0,0
567481338,567479417,68467874,59.396201899999994,24.6605964,2.2719681,-1.2552304,-2.8473608,-0.021752972,-0.012412676,-0.03908609,0.0018937445,-0.04203943,-0.80895245,-0.7674621,-0.0076688584,-0.002126247,-0.016722856,1.2252836,0.041570757,-6.4264045,-0.16257298,-0.0043945326,28.056198,0.20941973,0.18080384,0.18025586,0.10834089,0.08087293,inf,inf,inf,inf,1,1,1,1,2,2,2,2,2,0,1,1,0,0,0
567490126,567489300,68467874,59.396201899999994,24.6605964,2.2719662,-1.2555926,-2.8544464,-0.021752972,-0.012412676,-0.03908609,-0.004425047,-0.042212047,-0.8459412,-0.80380756,-0.0076688584,-0.002126247,-0.016722856,-0.002250273,1.1111357,-3.6763592,-0.16204378,-0.0043945326,28.056198,0.21650529,0.18150216,0.18080862,0.10892125,0.08108102,inf,inf,inf,inf,1,1,1,1,2,2,2,2,2,0,1,1,0,0,0
567499866,567499184,68467874,59.396201899999994,24.6605964,2.271905,-1.2559218,-2.8618193,-0.021752972,-0.012412676,-0.03908609,-0.01011565,-0.039622102,-0.86008644,-0.817354,-0.0076688584,-0.002126247,-0.016722856,0.14853893,0.6359506,-2.0097485,-0.16153584,-0.0043945326,28.056198,0.22387815,0.18220614,0.1813639,0.1095097,0.08128776,inf,inf,inf,inf,1,1,1,1,2,2,2,2,2,0,1,1,0,0,0
567509823,567509070,68467874,59.396201899999994,24.6605964,2.271823,-1.2562208,-2.8693569,-0.021752972,-0.012412676,-0.03908609,-0.010836188,-0.039010152,-0.8760075,-0.83271915,-0.0076688584,-0.002126247,-0.016722856,-0.090086,-0.15886031,-2.21313,-0.16097876,-0.0043945326,28.056198,0.23141575,0.18291587,0.1819217,0.11005032,0.08149492,inf,inf,inf,inf,1,1,1,1,2,2,2,2,2,0,1,1,0,0,0
567519649,567518954,68467874,59.396201899999994,24.6605964,2.2717545,-1.2565261,-2.8771708,-0.021752972,-0.012412676,-0.03908609,-0.008735968,-0.040363092,-0.9097564,-0.86595327,-0.0076688584,-0.002126247,-0.016722856,0.040410433,-0.32832497,-4.4437795,-0.16032258,-0.0043945326,28.056198,0.23922968,0.18363112,0.18248202,0.11058122,0.08170397,inf,inf,inf,inf,1,1,1,1,2,2,2,2,2,0,1,1,0,0,0
567529731,567528839,68467874,59.396201899999994,24.6605964,2.2717454,-1.2568507,-2.8856223,-0.021752972,-0.012412676,-0.03908609,-0.0032219444,-0.038159803,-0.941019,-0.8970192,-0.0076688584,-0.002126247,-0.016722856,-0.44234774,0.8233312,-3.639756,-0.15988378,-0.0043945326,28.056198,0.24768114,0.18435189,0.18279506,0.11112391,0.08185732,inf,inf,inf,inf,1,1,1,1,2,2,2,2,2,0,1,1,0,0,0
567539795,567538723,68467874,59.396201899999994,24.6605964,2.2717593,-1.2571918,-2.8944447,-0.021752972,-0.012412676,-0.03908609,-0.005114035,-0.03913173,-0.97963923,-0.935469,-0.0076688584,-0.002126247,-0.016722856,-1.2306583,1.0195231,-4.1095233,-0.15958443,-0.0043945326,28.056198,0.25650358,0.18507828,0.18335968,0.11173302,0.08206467,inf,inf,inf,inf,1,1,1,1,2,2,2,2,2,0,1,1,0,0,0
567550095,567548608,68467874,59.396201899999994,24.6605964,2.2717342,-1.2575471,-2.9036374,-0.021752972,-0.012412676,-0.03908609,-0.012798114,-0.03829286,-1.0097405,-0.9654247,-0.0076688584,-0.002126247,-0.016722856,-2.173092,1.5215032,-2.4199414,-0.15924898,-0.0043945326,28.056198,0.2656963,0.18581055,0.18392682,0.112266436,0.08227235,inf,inf,inf,inf,1,1,1,1,2,2,2,2,2,0,1,1,0,0,0
567559564,567558493,68467874,59.396201899999994,24.6605964,2.2716348,-1.2578766,-2.9130006,-0.021752972,-0.012412676,-0.03908609,-0.015011642,-0.031325538,-1.0152805,-0.97084355,-0.0076688584,-0.002126247,-0.016722856,-0.47323632,2.2029006,-0.5170017,-0.15870664,-0.0043945326,28.056198,0.27505946,0.1865484,0.18449649,0.1128328,0.08248052,inf,inf,inf,inf,1,1,1,1,2,2,2,2,2,0,1,1,0,0,0
567570045,567568377,68467874,59.396201899999994,24.6605964,2.271569,-1.2581664,-2.9224222,-0.021752972,-0.012412676,-0.03908609,-0.009630009,-0.03183178,-1.0194774,-0.97494227,-0.0076688584,-0.002126247,-0.016722856,-0.3111485,0.86023366,-0.66876334,-0.15821779,-0.0043945326,28.056198,0.28448105,0.187292,0.18506868,0.11340824,0.08268879,inf,inf,inf,inf,1,1,1,1,2,2,2,2,2,0,1,1,0,0,0
567579805,567578261,68467874,59.396201899999994,24.6605964,2.2715273,-1.2584542,-2.9320185,-0.021752972,-0.012412676,-0.03908609,-0.0049064965,-0.041652504,-1.047834,-1.0032231,-0.0076688584,-0.002126247,-0.016722856,0.76467866,-2.2252083,-3.557198,-0.1579416,-0.0043945326,28.056198,0.2940774,0.1880414,0.1856434,0.114028804,0.08289704,inf,inf,inf,inf,1,1,1,1,2,2,2,2,2,0,1,1,0,0,0
567589852,567588146,68467874,59.396201899999994,24.6605964,2.2714734,-1.2587668,-2.9422865,-0.021752972,-0.012412676,-0.03908609,-0.014293678,-0.041201923,-1.0778464,-1.0334847,-0.0076688584,-0.002126247,-0.016722856,-1.0126373,-1.8444593,-1.4668007,-0.1577057,-0.0043945326,28.056198,0.30434537,0.18879685,0.18595764,0.1145909,0.08304612,inf,inf,inf,inf,1,1,1,1,2,2,2,2,2,0,1,1,0,0,0
567599848,567598031,68467874,59.396201899999994,24.6605964,2.271347,-1.2590396,-2.9527535,-0.021752972,-0.012412676,-0.03908609,-0.017368965,-0.037559602,-1.086384,-1.0422789,-0.0076688584,-0.002126247,-0.016722856,0.030497443,-1.9716383,0.21009767,-0.15728804,-0.0043945326,28.056198,0.31481242,0.18955807,0.18653661,0.115079165,0.08325351,inf,inf,inf,inf,1,1,1,1,2,2,2,2,2,0,1,1,0,0,0
567610983,567607915,68467874,59.396201899999994,24.6605964,2.270995,-1.2592032,-2.9621477,-0.021752972,-0.012412676,-0.03908609,-0.009942083,-0.03426252,-1.0847658,-1.0397711,-0.0076688584,-0.002126247,-0.016722856,0.967546,-1.0538788,-0.21466736,-0.15694995,-0.0043945326,28.056198,0.3242066,0.18108001,0.18044373,0.10990269,0.0809594,inf,inf,inf,inf,1,1,1,1,2,2,2,2,2,0,1,1,0,0,0
567619960,567617800,68467874,59.396201899999994,24.6605964,2.2707067,-1.2593803,-2.9716036,-0.021752972,-0.012412676,-0.03908609,-0.008933173,-0.030082934,-1.0911845,-1.0453562,-0.0076688584,-0.002126247,-0.016722856,-0.52507836,0.8544006,-0.5050832,-0.15668574,-0.0043945326,28.056198,0.3336625,0.18178634,0.18099748,0.11045386,0.08116714,inf,inf,inf,inf,1,1,1,1,2,2,2,2,2,0,1,1,0,0,0
567629703,567627684,68467874,59.396201899999994,24.6605964,2.2703812,-1.2595553,-2.9812026,-0.021752972,-0.012412676,-0.03908609,-0.014562684,-0.024466753,-1.1044422,-1.057834,-0.0076688584,-0.002126247,-0.016722856,-0.22254167,2.5510385,-1.0928235,-0.15630858,-0.0043945326,28.056198,0.34326148,0.1824983,0.18155374,0.11099237,0.08137505,inf,inf,inf,inf,1,1,1,1,2,2,2,2,2,0,1,1,0,0,0
567639973,567637569,68467874,59.396201899999994,24.6605964,2.27008,-1.259704,-2.990919,-0.021752972,-0.012412676,-0.03908609,-0.0057207127,-0.027476572,-1.1071334,-1.0597973,-0.0076688584,-0.002126247,-0.016722856,1.042659,0.89628994,0.3285551,-0.15581177,-0.0043945326,28.056198,0.352978,0.18321587,0.18211251,0.1115643,0.08158263,inf,inf,inf,inf,1,1,1,1,2,2,2,2,2,0,1,1,0,0,0
567649253,567647454,68467874,59.396201899999994,24.6605964,2.2698133,-1.2598463,-3.0006907,-0.021752972,-0.012412676,-0.03908609,-0.009217167,-0.032920368,-1.1083411,-1.060327,-0.0076688584,-0.002126247,-0.016722856,-0.20093578,-1.4741175,0.09986886,-0.15536226,-0.0043945326,28.056198,0.36274958,0.18393919,0.18267383,0.11208996,0.081789464,inf,inf,inf,inf,1,1,1,1,2,2,2,2,2,0,1,1,0,0,0
567659517,567657338,68467874,59.396201899999994,24.6605964,2.2695284,-1.2599796,-3.0107124,-0.021752972,-0.012412676,-0.03908609,-0.01157702,-0.032616977,-1.1071697,-1.0587312,-0.0076688584,-0.002126247,-0.016722856,-0.3773062,-2.113445,0.82902974,-0.1549615,-0.0043945326,28.056198,0.37277126,0.18466812,0.18298705,0.112545855,0.08194232,inf,inf,inf,inf,1,1,1,1,2,2,2,2,2,0,1,1,0,0,0
567667812,567667223,68467874,59.396201899999994,24.6605964,2.269274,-1.2601117,-3.0207443,-0.021752972,-0.012412676,-0.03908609,-0.006181987,-0.027944712,-1.1106524,-1.0618268,-0.0076688584,-0.002126247,-0.016722856,-0.045591768,-0.6306135,-1.2241713,-0.15450305,-0.0043945326,28.056198,0.3828032,0.18540236,0.18355264,0.11299414,0.082150735,inf,inf,inf,inf,1,1,1,1,2,2,2,2,2,0,1,1,0,0,0
567677709,567677107,68467874,59.396201899999994,24.6605964,2.2690418,-1.2602565,-3.0308516,-0.021752972,-0.012412676,-0.03908609,-0.007330041,-0.025229884,-1.1179192,-1.0687426,-0.0076688584,-0.002126247,-0.016722856,-0.7964002,0.8438165,-0.80412865,-0.15403923,-0.0043945326,28.056198,0.39291048,0.1861419,0.18412074,0.11355179,0.08235979,inf,inf,inf,inf,1,1,1,1,2,2,2,2,2,0,1,1,0,0,0
567687601,567686992,68467874,59.396201899999994,24.6605964,2.2687812,-1.2603897,-3.0409422,-0.021752972,-0.012412676,-0.03908609,-0.006967529,-0.01803366,-1.0993778,-1.0498849,-0.0076688584,-0.002126247,-0.016722856,0.7985569,2.2886455,2.1119945,-0.153615,-0.0043945326,28.056198,0.40300107,0.18688717,0.1846914,0.11409193,0.08256665,inf,inf,inf,inf,1,1,1,1,2,2,2,2,2,0,1,1,0,0,0
567697612,567696882,68467874,59.396201899999994,24.6605964,2.268548,-1.2605134,-3.05098,-0.021752972,-0.012412676,-0.03908609,-0.0060278745,-0.024658728,-1.1044804,-1.0547045,-0.0076688584,-0.002126247,-0.016722856,0.22450578,0.3143282,-0.9279599,-0.15308979,-0.0043945326,28.056198,0.41303897,0.18763818,0.18526457,0.114562035,0.082774274,inf,inf,inf,inf,1,1,1,1,2,2,2,2,2,0,1,1,0,0,0
567707673,567706761,68467874,59.396201899999994,24.6605964,2.2683368,-1.2606548,-3.0611014,-0.021752972,-0.012412676,-0.03908609,-0.006623576,-0.028094964,-1.1011082,-1.0510814,-0.0076688584,-0.002126247,-0.016722856,-0.3223057,-0.82132924,1.7672395,-0.15268688,-0.0043945326,28.056198,0.4231603,0.18839462,0.18584028,0.11499979,0.082983024,inf,inf,inf,inf,1,1,1,1,2,2,2,2,2,0,1,1,0,0,0
567717709,567716646,68467874,59.396201899999994,24.6605964,2.2681181,-1.2607598,-3.0711284,-0.021752972,-0.012412676,-0.03908609,-0.0068852063,-0.02368084,-1.0957768,-1.0455301,-0.0076688584,-0.002126247,-0.016722856,-0.20067917,-1.1642776,-1.3057481,-0.15218043,-0.0043945326,28.056198,0.43318725,0.18915632,0.1864185,0.11546548,0.083191164,inf,inf,inf,inf,1,1,1,1,2,2,2,2,2,0,1,1,0,0,0
567727510,567726530,68467874,59.396201899999994,24.6605964,2.2679188,-1.2608755,-3.0813792,-0.021752972,-0.012412676,-0.03908609,-0.0028008628,-0.02286369,-1.1101983,-1.0598974,-0.0076688584,-0.002126247,-0.016722856,0.2946516,-0.1596263,-1.8161631,-0.15163946,-0.0043945326,28.056198,0.44343805,0.18992347,0.18673293,0.11593961,0.08333933,inf,inf,inf,inf,1,1,1,1,2,2,2,2,2,0,1,1,0,0,0
567737880,567736415,68467874,59.396201899999994,24.6605964,2.2678087,-1.2612723,-3.0908906,-0.021752972,-0.012412676,-0.03908609,-0.004827238,-0.017652333,-1.0851866,-1.0340779,-0.0076688584,-0.002126247,-0.016722856,0.13463357,1.6934587,3.3206246,-0.1512132,-0.0043945326,28.056198,0.45294952,0.18137185,0.18061945,0.11062503,0.081037834,inf,inf,inf,inf,1,1,1,1,2,2,2,2,2,0,1,1,0,0,0
567746921,567746299,68467874,59.396201899999994,24.6605964,2.2677004,-1.2616407,-3.1002405,-0.021752972,-0.012412676,-0.03908609,-0.004394344,-0.023435807,-1.083561,-1.0316992,-0.0076688584,-0.002126247,-0.016722856,0.102170154,-0.44231018,-2.1741357,-0.15084623,-0.0043945326,28.056198,0.46229935,0.18208285,0.18117405,0.11106846,0.08124512,inf,inf,inf,inf,1,1,1,1,2,2,2,2,2,0,1,1,0,0,0
567756832,567756184,68467874,59.396201899999994,24.6605964,2.2676046,-1.2620078,-3.109737,-0.021752972,-0.012412676,-0.03908609,-0.00505321,-0.021230662,-1.0878726,-1.0353107,-0.0076688584,-0.002126247,-0.016722856,-0.4261259,-0.20813003,0.64069915,-0.15024757,-0.0043945326,28.056198,0.4717958,0.18279907,0.18173116,0.11148801,0.081452325,inf,inf,inf,inf,1,1,1,1,2,2,2,2,2,0,1,1,0,0,0
567766625,567766068,68467874,59.396201899999994,24.6605964,2.2675393,-1.2623835,-3.1191227,-0.021752972,-0.012412676,-0.03908609,-0.0014282345,-0.01925522,-1.06771,-1.014499,-0.0076688584,-0.002126247,-0.016722856,-0.6203631,0.7993354,0.78290766,-0.14989087,-0.0043945326,28.056198,0.48118162,0.18352045,0.1822908,0.11193098,0.08166029,inf,inf,inf,inf,1,1,1,1,2,2,2,2,2,0,1,1,0,0,0
567776908,567775953,68467874,59.396201899999994,24.6605964,2.267448,-1.2627205,-3.128484,-0.021752972,-0.012412676,-0.03908609,-0.002654823,-0.017304547,-1.0712862,-1.0174749,-0.0076688584,-0.002126247,-0.016722856,0.5476588,-0.017623715,-0.7518675,-0.14950076,-0.0043945326,28.056198,0.4905429,0.18424706,0.18285298,0.11237919,0.081867635,inf,inf,inf,inf,1,1,1,1,2,2,2,2,2,0,1,1,0,0,0
567786649,567785838,68467874,59.396201899999994,24.6605964,2.267397,-1.2630731,-3.1379683,-0.021752972,-0.012412676,-0.03908609,0.0028177125,-0.023998715,-1.065363,-1.0110893,-0.0076688584,-0.002126247,-0.016722856,0.5255623,-0.8694814,0.4945529,-0.14936315,-0.0043945326,28.056198,0.5000272,0.18497896,0.18316635,0.11273688,0.08202043,inf,inf,inf,inf,1,1,1,1,2,2,2,2,2,0,1,1,0,0,0
567796495,567795722,68467874,59.396201899999994,24.6605964,2.2673218,-1.2633934,-3.147462,-0.021752972,-0.012412676,-0.03908609,-0.004020874,-0.014818777,-1.0626005,-1.007906,-0.0076688584,-0.002126247,-0.016722856,0.019230286,0.60567015,0.33636504,-0.1490571,-0.0043945326,28.056198,0.50952077,0.18571578,0.18373281,0.11319444,0.08222883,inf,inf,inf,inf,1,1,1,1,2,2,2,2,2,0,1,1,0,0,0
567806384,567805606,68467874,59.396201899999994,24.6605964,2.267286,-1.2637134,-3.156954,-0.021752972,-0.012412676,-0.03908609,0.00386428,-0.015671495,-1.0654587,-1.0103832,-0.0076688584,-0.002126247,-0.016722856,0.017504007,1.387115,-1.1078461,-0.14870746,-0.0043945326,28.056198,0.5190129,0.18645793,0.1843018,0.11361704,0.08243695,inf,inf,inf,inf,1,1,1,1,2,2,2,2,2,0,1,1,0,0,0
567816451,567815491,68467874,59.396201899999994,24.6605964,2.2672307,-1.2640175,-3.1664705,-0.021752972,-0.012412676,-0.03908609,-0.0060026036,-0.01071709,-1.0638864,-1.0084685,-0.0076688584,-0.002126247,-0.016722856,-1.2523861,1.5600976,-0.53009737,-0.14807032,-0.0043945326,28.056198,0.5285294,0.18720526,0.1848733,0.114025876,0.08264472,inf,inf,inf,inf,1,1,1,1,2,2,2,2,2,0,1,1,0,0,0
567826195,567825376,68467874,59.396201899999994,24.6605964,2.2671878,-1.2643019,-3.176006,-0.021752972,-0.012412676,-0.03908609,0.006826204,-0.021143345,-1.0595865,-1.003863,-0.0076688584,-0.002126247,-0.016722856,1.329499,-1.9651644,0.39091405,-0.14760199,-0.0043945326,28.056198,0.53806496,0.18795773,0.18544735,0.114517204,0.08285342,inf,inf,inf,inf,1,1,1,1,2,2,2,2,2,0,1,1,0,0,0
567836107,567835260,68467874,59.396201899999994,24.6605964,2.2671864,-1.2646005,-3.1855834,-0.021752972,-0.012412676,-0.03908609,0.0009925148,-0.020668875,-1.0638237,-1.00783,-0.0076688584,-0.002126247,-0.016722856,-0.74060863,-1.7817204,-0.48803973,-0.14726475,-0.0043945326,28.056198,0.54764223,0.18871571,0.18602392,0.114856996,0.083061114,inf,inf,inf,inf,1,1,1,1,2,2,2,2,2,0,1,1,0,0,0
567846092,567845145,68467874,59.396201899999994,24.6605964,2.2671542,-1.2648706,-3.195188,-0.021752972,-0.012412676,-0.03908609,0.003831061,-0.0154770315,-1.0567417,-1.0005121,-0.0076688584,-0.002126247,-0.016722856,0.679238,-0.6501293,0.81383914,-0.14680554,-0.0043945326,28.056198,0.5572469,0.18947853,0.18660302,0.115312375,0.08326999,inf,inf,inf,inf,1,1,1,1,2,2,2,2,2,0,1,1,0,0,0
567855675,567855029,68467874,59.396201899999994,24.6605964,2.267179,-1.2651457,-3.2048397,-0.021752972,-0.012412676,-0.03908609,0.007807544,-0.01233795,-1.0595273,-1.0031661,-0.0076688584,-0.002126247,-0.016722856,-0.20424338,1.1877971,-1.1099432,-0.14644752,-0.0043945326,28.056198,0.5668986,0.1902467,0.18691753,0.11575915,0.083418734,inf,inf,inf,inf,1,1,1,1,2,2,2,2,2,0,1,1,0,0,0
567866206,567864914,68467874,59.396201899999994,24.6605964,2.266737,-1.2650502,-3.2136524,-0.021752972,-0.012412676,-0.03908609,0.0028660013,-0.009934422,-1.0737213,-1.016242,-0.0076688584,-0.002126247,-0.016722856,-0.27118915,1.3582526,-1.266826,-0.14580749,-0.0043945326,28.056198,0.57571125,0.18165535,0.18078475,0.110378265,0.08110852,inf,inf,inf,inf,1,1,1,1,2,2,2,2,2,0,1,1,0,0,0
567875468,567874799,68467874,59.396201899999994,24.6605964,2.26633,-1.2649611,-3.222488,-0.021752972,-0.012412676,-0.03908609,0.010937391,-0.012834071,-1.0501021,-0.9915754,-0.0076688584,-0.002126247,-0.016722856,1.0837357,0.24135607,3.1751075,-0.14511572,-0.0043945326,28.056198,0.5845468,0.18236694,0.18134013,0.110817514,0.08131596,inf,inf,inf,inf,1,1,1,1,2,2,2,2,2,0,1,1,0,0,0
567885522,567884683,68467874,59.396201899999994,24.6605964,2.2659788,-1.264867,-3.2312431,-0.021752972,-0.012412676,-0.03908609,0.0066939825,-0.013681029,-1.0594639,-0.9999579,-0.0076688584,-0.002126247,-0.016722856,-1.051294,-0.857081,-2.7491848,-0.14466305,-0.0043945326,28.056198,0.593302,0.18308374,0.18189803,0.11125075,0.081524804,inf,inf,inf,inf,1,1,1,1,2,2,2,2,2,0,1,1,0,0,0
567895383,567894568,68467874,59.396201899999994,24.6605964,2.2655687,-1.2647667,-3.2402987,-0.021752972,-0.012412676,-0.03908609,0.003560559,-0.011024508,-1.0801767,-1.0197573,-0.0076688584,-0.002126247,-0.016722856,0.61058617,-0.34915867,-0.4250377,-0.14400728,-0.0043945326,28.056198,0.6023576,0.1838057,0.18245846,0.11165918,0.08173109,inf,inf,inf,inf,1,1,1,1,2,2,2,2,2,0,1,1,0,0,0
567905242,567904452,68467874,59.396201899999994,24.6605964,2.2652469,-1.2646738,-3.249293,-0.021752972,-0.012412676,-0.03908609,0.018963976,-0.010991168,-1.0483246,-0.9870548,-0.0076688584,-0.002126247,-0.016722856,1.5442318,0.31291333,3.047217,-0.14343008,-0.0043945326,28.056198,0.61135197,0.18453275,0.18302143,0.11210599,0.08194019,inf,inf,inf,inf,1,1,1,1,2,2,2,2,2,0,1,1,0,0,0
567915553,567914337,68467874,59.396201899999994,24.6605964,2.2649612,-1.2645754,-3.258291,-0.021752972,-0.012412676,-0.03908609,0.008958134,-0.0069176857,-1.0695881,-1.007598,-0.0076688584,-0.002126247,-0.016722856,-1.0783461,1.0816122,-4.356501,-0.14292683,-0.0043945326,28.056198,0.6203499,0.18526503,0.18333487,0.11252188,0.082091704,inf,inf,inf,inf,1,1,1,1,2,2,2,2,2,0,1,1,0,0,0
567925091,567924222,68467874,59.396201899999994,24.6605964,2.2646294,-1.2644708,-3.2675686,-0.021752972,-0.012412676,-0.03908609,0.011828323,-0.01094176,-1.0768741,-1.0142194,-0.0076688584,-0.002126247,-0.016722856,1.1318197,-0.3266829,1.1506959,-0.1423273,-0.0043945326,28.056198,0.62962747,0.18600245,0.1839021,0.11294441,0.08230217,inf,inf,inf,inf,1,1,1,1,2,2,2,2,2,0,1,1,0,0,0
567934702,567934106,68467874,59.396201899999994,24.6605964,2.264386,-1.2643766,-3.2767165,-0.021752972,-0.012412676,-0.03908609,0.01703633,-0.0120581575,-1.0479789,-0.98471296,-0.0076688584,-0.002126247,-0.016722856,-0.020541074,-1.0054336,1.8981963,-0.14188436,-0.0043945326,28.056198,0.63877535,0.18674502,0.18447188,0.11339663,0.08250933,inf,inf,inf,inf,1,1,1,1,2,2,2,2,2,0,1,1,0,0,0
567944672,567943991,68467874,59.396201899999994,24.6605964,2.2641337,-1.2642676,-3.2859163,-0.021752972,-0.012412676,-0.03908609,0.01004727,-0.009060117,-1.0727051,-1.0088795,-0.0076688584,-0.002126247,-0.016722856,-0.68373954,-0.9007455,-2.8699462,-0.14154284,-0.0043945326,28.056198,0.6479752,0.18749288,0.18504418,0.11380717,0.08271749,inf,inf,inf,inf,1,1,1,1,2,2,2,2,2,0,1,1,0,0,0
567954602,567953875,68467874,59.396201899999994,24.6605964,2.263903,-1.2641729,-3.2953072,-0.021752972,-0.012412676,-0.03908609,0.020009344,-0.006084076,-1.0700427,-1.0057069,-0.0076688584,-0.002126247,-0.016722856,1.110703,0.7291712,1.7546973,-0.14118548,-0.0043945326,28.056198,0.65736604,0.18824585,0.18561901,0.11424323,0.08292607,inf,inf,inf,inf,1,1,1,1,2,2,2,2,2,0,1,1,0,0,0
567964565,567963760,68467874,59.396201899999994,24.6605964,2.263737,-1.2640897,-3.3045962,-0.021752972,-0.012412676,-0.03908609,0.018171005,-0.0037624855,-1.0590192,-0.99422085,-0.0076688584,-0.002126247,-0.016722856,-0.8303228,1.6955048,0.5300251,-0.14081305,-0.0043945326,28.056198,0.66665506,0.18900406,0.18619637,0.11472589,0.083133794,inf,inf,inf,inf,1,1,1,1,2,2,2,2,2,0,1,1,0,0,0
567975370,567973652,68467874,59.396201899999994,24.6605964,2.2642426,-1.2643987,-3.31371,-0.021752972,-0.012412676,-0.03908609,0.018081173,-0.0045610266,-1.0719973,-1.0064969,-0.0076688584,-0.002126247,-0.016722856,0.7479134,0.6078526,-0.537549,-0.14051156,-0.0043945326,28.056198,0.67576885,0.1806087,0.18013836,0.10948094,0.08085512,inf,inf,inf,inf,1,1,1,1,2,2,2,2,2,0,1,1,0,0,0
