timestamp,timestamp_sample,ref_timestamp,ref_lat,ref_lon,x,y,z,delta_xy[0],delta_xy[1],delta_z,vx,vy,vz,z_deriv,delta_vxy[0],delta_vxy[1],delta_vz,ax,ay,az,heading,delta_heading,ref_alt,dist_bottom,eph,epv,evh,evv,vxy_max,vz_max,hagl_min,hagl_max,xy_valid,z_valid,v_xy_valid,v_z_valid,xy_reset_counter,z_reset_counter,vxy_reset_counter,vz_reset_counter,heading_reset_counter,heading_good_for_control,xy_global,z_global,dist_bottom_valid,dist_bottom_sensor_bitfield,dead_reckoning
564943945,564942637,68339896,59.396201899999994,24.6605965,2.338156,-1.3193864,-2.3802004,-0.022485403,-0.0058500394,-0.06750712,-0.023101142,-0.027668508,-0.037425105,-0.049404763,0.037437953,0.037413422,0.009335578,0.0023901633,-0.031359266,0.0002521391,-0.15271796,-0.01406361,28.05643,0.1,0.18731308,0.18485852,0.111520916,0.0823908,inf,inf,inf,inf,1,1,1,1,2,2,2,2,2,0,1,1,0,0,0
564953624,564952652,68339896,59.396201899999994,24.6605965,2.3379128,-1.3192545,-2.380831,-0.022485403,-0.0058500394,-0.06750712,-0.023125734,-0.027687574,-0.038036197,-0.050149135,0.037437953,0.037413422,0.009335578,-0.012595702,-0.03379936,-0.066510364,-0.15271764,-0.01406361,28.05643,0.1,0.18806289,0.18543836,0.111962765,0.0825993,inf,inf,inf,inf,1,1,1,1,2,2,2,2,2,0,1,1,0,0,0
564963711,564962672,68339896,59.396201899999994,24.6605965,2.337673,-1.3191398,-2.38146,-0.022485403,-0.0058500394,-0.06750712,-0.022463927,-0.027701313,-0.03899823,-0.051233582,0.037437953,0.037413422,0.009335578,0.08039604,-0.029219035,-0.11347526,-0.15278576,-0.01406361,28.05643,0.1,0.1888179,0.18602079,0.11240446,0.08280784,inf,inf,inf,inf,1,1,1,1,2,2,2,2,2,0,1,1,0,0,0
564974464,564972691,68339896,59.396201899999994,24.6605965,2.3374312,-1.3187946,-2.3819227,-0.022485403,-0.0058500394,-0.06750712,-0.02327364,-0.028065983,-0.039672513,-0.05184657,0.037437953,0.037413422,0.009335578,-0.03544278,-0.040648304,-0.058913518,-0.15279488,-0.01406361,28.05643,0.1,0.18052605,0.17999588,0.10748528,0.080551416,inf,inf,inf,inf,1,1,1,1,2,2,2,2,2,0,1,1,0,0,0
564984133,564982710,68339896,59.396201899999994,24.6605965,2.3371906,-1.318471,-2.3823826,-0.022485403,-0.0058500394,-0.06750712,-0.0229906,-0.027692443,-0.039341424,-0.05145175,0.037437953,0.037413422,0.009335578,-0.024316173,-0.045183245,0.031277917,-0.1525359,-0.01406361,28.05643,0.1,0.1812281,0.18055318,0.10792081,0.08075926,inf,inf,inf,inf,1,1,1,1,2,2,2,2,2,0,1,1,0,0,0
564993888,564992730,68339896,59.396201899999994,24.6605965,2.3369558,-1.3181728,-2.3829806,-0.022485403,-0.0058500394,-0.06750712,-0.022609364,-0.026974259,-0.039564397,-0.05175377,0.037437953,0.037413422,0.009335578,-0.0859992,0.41869614,-0.008808733,-0.15224516,-0.01406361,28.05643,0.1,0.18193528,0.18087105,0.10835752,0.08091536,inf,inf,inf,inf,1,1,1,1,2,2,2,2,2,0,1,1,0,0,0
565003947,565002749,68339896,59.396201899999994,24.6605965,2.3367152,-1.3178883,-2.3835852,-0.022485403,-0.0058500394,-0.06750712,-0.023351522,-0.027290653,-0.040626217,-0.052886073,0.037437953,0.037413422,0.009335578,0.10373145,-0.025342047,0.1303513,-0.15250084,-0.01406361,28.05643,0.1,0.18264756,0.18143274,0.108793676,0.08112335,inf,inf,inf,inf,1,1,1,1,2,2,2,2,2,0,1,1,0,0,0
565014172,565012770,68339896,59.396201899999994,24.6605965,2.3364847,-1.3176304,-2.3841918,-0.022485403,-0.0058500394,-0.06750712,-0.021836149,-0.028288208,-0.04274501,-0.055067133,0.037437953,0.037413422,0.009335578,0.19059193,-0.18491556,-0.3014925,-0.15301642,-0.01406361,28.05643,0.1,0.18336497,0.18199699,0.10923019,0.08133141,inf,inf,inf,inf,1,1,1,1,2,2,2,2,2,0,1,1,0,0,0
565023914,565022788,68339896,59.396201899999994,24.6605965,2.3362513,-1.3173909,-2.3847926,-0.022485403,-0.0058500394,-0.06750712,-0.023877416,-0.026810972,-0.04186763,-0.054244146,0.037437953,0.037413422,0.009335578,-0.22621943,0.099691056,0.064197175,-0.15310083,-0.01406361,28.05643,0.1,0.18408753,0.18256381,0.10966843,0.08153955,inf,inf,inf,inf,1,1,1,1,2,2,2,2,2,0,1,1,0,0,0
565033905,565032807,68339896,59.396201899999994,24.6605965,2.3360193,-1.3171744,-2.3853884,-0.022485403,-0.0058500394,-0.06750712,-0.022244906,-0.028611986,-0.04261317,-0.05503652,0.037437953,0.037413422,0.009335578,0.02505953,-0.13162513,0.00986382,-0.152772,-0.01406361,28.05643,0.1,0.18481524,0.1831332,0.11010679,0.08174776,inf,inf,inf,inf,1,1,1,1,2,2,2,2,2,0,1,1,0,0,0
565044165,565042827,68339896,59.396201899999994,24.6605965,2.335785,-1.316979,-2.3859854,-0.022485403,-0.0058500394,-0.06750712,-0.023247566,-0.028160226,-0.043024544,-0.055487465,0.037437953,0.037413422,0.009335578,0.11030825,-0.06583847,-0.10457162,-0.15248747,-0.01406361,28.05643,0.1,0.18554813,0.18370518,0.11054467,0.08195604,inf,inf,inf,inf,1,1,1,1,2,2,2,2,2,0,1,1,0,0,0
565054017,565052847,68339896,59.396201899999994,24.6605965,2.3355558,-1.3168055,-2.3865802,-0.022485403,-0.0058500394,-0.06750712,-0.02303876,-0.028745605,-0.044199757,-0.05669531,0.037437953,0.037413422,0.009335578,-0.096708715,-0.09739745,-0.2411327,-0.15255877,-0.01406361,28.05643,0.1,0.18628615,0.18427974,0.11098404,0.08216438,inf,inf,inf,inf,1,1,1,1,2,2,2,2,2,0,1,1,0,0,0
565064037,565062864,68339896,59.396201899999994,24.6605965,2.3353262,-1.316645,-2.387318,-0.022485403,-0.0058500394,-0.06750712,-0.022888482,-0.0272215,-0.044945832,-0.057603896,0.037437953,0.037413422,0.009335578,0.039524354,0.059469745,0.11265283,-0.15284951,-0.01406361,28.05643,0.1,0.18702938,0.18459956,0.11142538,0.08231645,inf,inf,inf,inf,1,1,1,1,2,2,2,2,2,0,1,1,0,0,0
565073987,565072883,68339896,59.396201899999994,24.6605965,2.3350961,-1.3165083,-2.3880432,-0.022485403,-0.0058500394,-0.06750712,-0.023033148,-0.028800128,-0.045541625,-0.058349837,0.037437953,0.037413422,0.009335578,0.086632974,-0.032578364,-0.23637065,-0.15299827,-0.01406361,28.05643,0.1,0.1877778,0.18517846,0.111866094,0.08252491,inf,inf,inf,inf,1,1,1,1,2,2,2,2,2,0,1,1,0,0,0
565084007,565082905,68339896,59.396201899999994,24.6605965,2.334871,-1.3163872,-2.3887687,-0.022485403,-0.0058500394,-0.06750712,-0.02263473,-0.028186647,-0.04580481,-0.05875129,0.037437953,0.037413422,0.009335578,0.004164015,-0.04536617,0.049565546,-0.1528289,-0.01406361,28.05643,0.1,0.18853143,0.18575992,0.11230475,0.08273352,inf,inf,inf,inf,1,1,1,1,2,2,2,2,2,0,1,1,0,0,0
565094795,565092922,68339896,59.396201899999994,24.6605965,2.3345711,-1.3160157,-2.3893049,-0.022485403,-0.0058500394,-0.06750712,-0.02349478,-0.028820029,-0.04463242,-0.05752813,0.037437953,0.037413422,0.009335578,-0.13005687,0.033029247,-0.038398515,-0.15257221,-0.01406361,28.05643,0.1,0.18027887,0.17976107,0.1074036,0.080486,inf,inf,inf,inf,1,1,1,1,2,2,2,2,2,0,1,1,0,0,0
565104096,565102941,68339896,59.396201899999994,24.6605965,2.334277,-1.3156646,-2.3898494,-0.022485403,-0.0058500394,-0.06750712,-0.022627192,-0.028676236,-0.047373798,-0.06021551,0.037437953,0.037413422,0.009335578,-0.044095233,-0.16221309,-0.2402841,-0.15257539,-0.01406361,28.05643,0.1,0.18097977,0.1803175,0.10783976,0.08069372,inf,inf,inf,inf,1,1,1,1,2,2,2,2,2,0,1,1,0,0,0
565114953,565112967,68339896,59.396201899999994,24.6605965,2.3339913,-1.3153386,-2.390406,-0.022485403,-0.0058500394,-0.06750712,-0.021958327,-0.029214446,-0.04791894,-0.060703587,0.037437953,0.037413422,0.009335578,0.024073377,-0.25767758,-0.025637137,-0.15277985,-0.01406361,28.05643,0.1,0.18168578,0.18087652,0.108281024,0.08090178,inf,inf,inf,inf,1,1,1,1,2,2,2,2,2,0,1,1,0,0,0
565124221,565122980,68339896,59.396201899999994,24.6605965,2.3337061,-1.31504,-2.3910697,-0.022485403,-0.0058500394,-0.06750712,-0.022848317,-0.0285956,-0.04791179,-0.060748532,0.037437953,0.037413422,0.009335578,-0.04549087,0.03715519,0.020165252,-0.15294346,-0.01406361,28.05643,0.1,0.18239695,0.18119481,0.10870971,0.081057414,inf,inf,inf,inf,1,1,1,1,2,2,2,2,2,0,1,1,0,0,0
565134036,565132999,68339896,59.396201899999994,24.6605965,2.333423,-1.3147643,-2.3917303,-0.022485403,-0.0058500394,-0.06750712,-0.02250832,-0.029027218,-0.048722353,-0.06160353,0.037437953,0.037413422,0.009335578,-0.024801528,0.046745304,-0.080221295,-0.1528741,-0.01406361,28.05643,0.1,0.18311317,0.18175822,0.10915077,0.081265755,inf,inf,inf,inf,1,1,1,1,2,2,2,2,2,0,1,1,0,0,0
565144247,565143019,68339896,59.396201899999994,24.6605965,2.3331447,-1.3145088,-2.3923898,-0.022485403,-0.0058500394,-0.06750712,-0.022316946,-0.028357008,-0.04881594,-0.061734203,0.037437953,0.037413422,0.009335578,-0.045178026,0.16462485,0.08893515,-0.15271463,-0.01406361,28.05643,0.1,0.18383458,0.1823242,0.10958773,0.081473775,inf,inf,inf,inf,1,1,1,1,2,2,2,2,2,0,1,1,0,0,0
565154097,565153037,68339896,59.396201899999994,24.6605965,2.3328655,-1.3142729,-2.3930452,-0.022485403,-0.0058500394,-0.06750712,-0.022552107,-0.028714014,-0.049628094,-0.06257639,0.037437953,0.037413422,0.009335578,0.067028895,0.064799845,-0.08739157,-0.15266211,-0.01406361,28.05643,0.1,0.18456115,0.18289275,0.11002657,0.081681944,inf,inf,inf,inf,1,1,1,1,2,2,2,2,2,0,1,1,0,0,0
565164169,565163057,68339896,59.396201899999994,24.6605965,2.332593,-1.3140566,-2.393699,-0.022485403,-0.0058500394,-0.06750712,-0.022471726,-0.029532934,-0.050319575,-0.06329118,0.037437953,0.037413422,0.009335578,-0.08500418,-0.270998,-0.18057534,-0.15278985,-0.01406361,28.05643,0.1,0.18529288,0.18346387,0.110464975,0.081890166,inf,inf,inf,inf,1,1,1,1,2,2,2,2,2,0,1,1,0,0,0
565174130,565173076,68339896,59.396201899999994,24.6605965,2.3323162,-1.313865,-2.394354,-0.022485403,-0.0058500394,-0.06750712,-0.0228846,-0.02998744,-0.050898306,-0.06388676,0.037437953,0.037413422,0.009335578,0.06300052,-0.25968632,-0.09756731,-0.15291351,-0.01406361,28.05643,0.1,0.18602978,0.18403757,0.11090542,0.08209861,inf,inf,inf,inf,1,1,1,1,2,2,2,2,2,0,1,1,0,0,0
565184157,565183095,68339896,59.396201899999994,24.6605965,2.3320465,-1.3136892,-2.3950086,-0.022485403,-0.0058500394,-0.06750712,-0.02252857,-0.02884132,-0.0509562,-0.06395534,0.037437953,0.037413422,0.009335578,-0.11909165,-0.025168939,0.091628164,-0.15287684,-0.01406361,28.05643,0.1,0.18677187,0.18461384,0.11134472,0.0823071,inf,inf,inf,inf,1,1,1,1,2,2,2,2,2,0,1,1,0,0,0
565194400,565193114,68339896,59.396201899999994,24.6605965,2.3317742,-1.3135307,-2.395805,-0.022485403,-0.0058500394,-0.06750712,-0.022960816,-0.029474929,-0.050970998,-0.06412694,0.037437953,0.037413422,0.009335578,0.0071231425,-0.16171195,0.046723135,-0.15279077,-0.01406361,28.05643,0.1,0.18751915,0.18493399,0.11177996,0.08245875,inf,inf,inf,inf,1,1,1,1,2,2,2,2,2,0,1,1,0,0,0
565204183,565203134,68339896,59.396201899999994,24.6605965,2.3315063,-1.3133937,-2.3965993,-0.022485403,-0.0058500394,-0.06750712,-0.022771152,-0.02902238,-0.05285365,-0.066154085,0.037437953,0.037413422,0.009335578,-0.07094858,0.060477518,-0.22260843,-0.15277945,-0.01406361,28.05643,0.1,0.18827163,0.1855146,0.112228215,0.08266731,inf,inf,inf,inf,1,1,1,1,2,2,2,2,2,0,1,1,0,0,0
565214490,565213153,68339896,59.396201899999994,24.6605965,2.3312438,-1.3132783,-2.3973978,-0.022485403,-0.0058500394,-0.06750712,-0.021904727,-0.02970649,-0.05367249,-0.0671056,0.037437953,0.037413422,0.009335578,0.07809436,0.045680128,-0.06746533,-0.15284863,-0.01406361,28.05643,0.1,0.18902934,0.18609779,0.11266973,0.08287599,inf,inf,inf,inf,1,1,1,1,2,2,2,2,2,0,1,1,0,0,0
565224358,565223172,68339896,59.396201899999994,24.6605965,2.3309824,-1.3131796,-2.398192,-0.022485403,-0.0058500394,-0.06750712,-0.023079121,-0.029208204,-0.053799283,-0.06735369,0.037437953,0.037413422,0.009335578,-0.17571473,0.10493346,0.09139984,-0.15290743,-0.01406361,28.05643,0.1,0.18979229,0.18668357,0.11311086,0.083084635,inf,inf,inf,inf,1,1,1,1,2,2,2,2,2,0,1,1,0,0,0
565234172,565233192,68339896,59.396201899999994,24.6605965,2.33072,-1.3130916,-2.3989794,-0.022485403,-0.0058500394,-0.06750712,-0.02199122,-0.02975204,-0.05373383,-0.06739859,0.037437953,0.037413422,0.009335578,0.14148943,-0.1853633,0.18900715,-0.15287143,-0.01406361,28.05643,0.1,0.19056047,0.18727191,0.113554634,0.083293475,inf,inf,inf,inf,1,1,1,1,2,2,2,2,2,0,1,1,0,0,0
565244501,565243211,68339896,59.396201899999994,24.6605965,2.3304613,-1.3130248,-2.3997562,-0.022485403,-0.0058500394,-0.06750712,-0.022370372,-0.029129332,-0.054501668,-0.06826631,0.037437953,0.037413422,0.009335578,0.06342844,0.12733158,-0.10017799,-0.15280347,-0.01406361,28.05643,0.1,0.19133392,0.18786283,0.113996886,0.0835023,inf,inf,inf,inf,1,1,1,1,2,2,2,2,2,0,1,1,0,0,0
565254411,565253230,68339896,59.396201899999994,24.6605965,2.3302023,-1.3129718,-2.4006598,-0.022485403,-0.0058500394,-0.06750712,-0.022961672,-0.029947426,-0.055292003,-0.069282316,0.037437953,0.037413422,0.009335578,-0.060776085,-0.08147082,-0.29870644,-0.15281685,-0.01406361,28.05643,0.1,0.1921126,0.18818372,0.114441626,0.08365022,inf,inf,inf,inf,1,1,1,1,2,2,2,2,2,0,1,1,0,0,0
565265111,565263250,68339896,59.396201899999994,24.6605965,2.3298814,-1.3127509,-2.401342,-0.022485403,-0.0058500394,-0.06750712,-0.022327533,-0.030434556,-0.055897612,-0.069867946,0.037437953,0.037413422,0.009335578,0.1271151,-0.14209913,-0.1616371,-0.15287368,-0.01406361,28.05643,0.1,0.18331514,0.18193366,0.109205484,0.08130304,inf,inf,inf,inf,1,1,1,1,2,2,2,2,2,0,1,1,0,0,0
565274328,565273269,68339896,59.396201899999994,24.6605965,2.3295689,-1.312551,-2.4020224,-0.022485403,-0.0058500394,-0.06750712,-0.0226857,-0.030229408,-0.05636788,-0.07031323,0.037437953,0.037413422,0.009335578,-0.09368948,-0.12728673,-0.15304142,-0.15293515,-0.01406361,28.05643,0.1,0.1840372,0.18250011,0.10964349,0.08151114,inf,inf,inf,inf,1,1,1,1,2,2,2,2,2,0,1,1,0,0,0
565284352,565283288,68339896,59.396201899999994,24.6605965,2.329258,-1.3123717,-2.4027057,-0.022485403,-0.0058500394,-0.06750712,-0.022651602,-0.030148724,-0.057132997,-0.07104859,0.037437953,0.037413422,0.009335578,-0.06819851,-0.013727944,-0.10565662,-0.15288158,-0.01406361,28.05643,0.1,0.1847644,0.18306912,0.11007974,0.08171933,inf,inf,inf,inf,1,1,1,1,2,2,2,2,2,0,1,1,0,0,0
565294413,565293307,68339896,59.396201899999994,24.6605965,2.328948,-1.3122088,-2.4033926,-0.022485403,-0.0058500394,-0.06750712,-0.022786023,-0.030311907,-0.05721699,-0.07109827,0.037437953,0.037413422,0.009335578,-0.027149804,-0.17512801,0.19889516,-0.152806,-0.01406361,28.05643,0.1,0.18549676,0.18364072,0.11051748,0.0819276,inf,inf,inf,inf,1,1,1,1,2,2,2,2,2,0,1,1,0,0,0
565304384,565303326,68339896,59.396201899999994,24.6605965,2.328641,-1.312066,-2.4040773,-0.022485403,-0.0058500394,-0.06750712,-0.023027178,-0.030273475,-0.05789474,-0.07173736,0.037437953,0.037413422,0.009335578,-0.10052084,-0.1129122,0.09847633,-0.1527841,-0.01406361,28.05643,0.1,0.18623428,0.18421489,0.11096023,0.082135886,inf,inf,inf,inf,1,1,1,1,2,2,2,2,2,0,1,1,0,0,0
565314718,565313346,68339896,59.396201899999994,24.6605965,2.328337,-1.3119432,-2.4047658,-0.022485403,-0.0058500394,-0.06750712,-0.022957569,-0.030320022,-0.059300184,-0.07310001,0.037437953,0.037413422,0.009335578,-0.08484368,-0.05411633,-0.06890265,-0.15288663,-0.01406361,28.05643,0.1,0.186977,0.18479164,0.11140129,0.08234437,inf,inf,inf,inf,1,1,1,1,2,2,2,2,2,0,1,1,0,0,0
565324453,565323365,68339896,59.396201899999994,24.6605965,2.3280363,-1.3118422,-2.4055917,-0.022485403,-0.0058500394,-0.06750712,-0.02260215,-0.03070934,-0.060498662,-0.07438305,0.037437953,0.037413422,0.009335578,0.01773009,0.004933509,0.020428244,-0.15297115,-0.01406361,28.05643,0.1,0.18772492,0.18511151,0.11184025,0.08249574,inf,inf,inf,inf,1,1,1,1,2,2,2,2,2,0,1,1,0,0,0
565334464,565333384,68339896,59.396201899999994,24.6605965,2.327742,-1.3117577,-2.4064202,-0.022485403,-0.0058500394,-0.06750712,-0.022452675,-0.030825853,-0.061712805,-0.075672254,0.037437953,0.037413422,0.009335578,-0.022949165,-0.08417422,-0.037277833,-0.15296125,-0.01406361,28.05643,0.1,0.18847804,0.1856926,0.11227891,0.08270438,inf,inf,inf,inf,1,1,1,1,2,2,2,2,2,0,1,1,0,0,0
565344604,565343403,68339896,59.396201899999994,24.6605965,2.3274515,-1.3116926,-2.4072456,-0.022485403,-0.0058500394,-0.06750712,-0.022557069,-0.03095975,-0.062040117,-0.076065525,0.037437953,0.037413422,0.009335578,-0.09217525,0.01838417,-0.06631551,-0.15286537,-0.01406361,28.05643,0.1,0.18923637,0.18627624,0.11272194,0.08291294,inf,inf,inf,inf,1,1,1,1,2,2,2,2,2,0,1,1,0,0,0
565355194,565353423,68339896,59.396201899999994,24.6605965,2.3271022,-1.3113647,-2.4079344,-0.022485403,-0.0058500394,-0.06750712,-0.022942735,-0.031052826,-0.06359989,-0.077540174,0.037437953,0.037413422,0.009335578,-0.01761206,-0.0376678,-0.26775804,-0.15280195,-0.01406361,28.05643,0.1,0.18087956,0.18022503,0.10775798,0.080645606,inf,inf,inf,inf,1,1,1,1,2,2,2,2,2,0,1,1,0,0,0
565364570,565363442,68339896,59.396201899999994,24.6605965,2.3267622,-1.3110578,-2.4086351,-0.022485403,-0.0058500394,-0.06750712,-0.022123083,-0.03015556,-0.065088905,-0.0789419,0.037437953,0.037413422,0.009335578,0.025135003,0.09661611,-0.22270435,-0.15282485,-0.01406361,28.05643,0.1,0.18158442,0.18078342,0.10819347,0.08085356,inf,inf,inf,inf,1,1,1,1,2,2,2,2,2,0,1,1,0,0,0
565374660,565373461,68339896,59.396201899999994,24.6605965,2.3264313,-1.3107729,-2.4093432,-0.022485403,-0.0058500394,-0.06750712,-0.021671658,-0.030605199,-0.065176465,-0.07894015,0.037437953,0.037413422,0.009335578,0.013754548,0.02780425,0.05491892,-0.15290384,-0.01406361,28.05643,0.1,0.18229441,0.18134439,0.10862925,0.08106148,inf,inf,inf,inf,1,1,1,1,2,2,2,2,2,0,1,1,0,0,0
565384598,565383480,68339896,59.396201899999994,24.6605965,2.3261025,-1.3105139,-2.4101741,-0.022485403,-0.0058500394,-0.06750712,-0.023132017,-0.030960886,-0.066074684,-0.079871476,0.037437953,0.037413422,0.009335578,-0.28010443,0.032508858,0.007142725,-0.15297562,-0.01406361,28.05643,0.1,0.18300954,0.18166274,0.109066896,0.081216775,inf,inf,inf,inf,1,1,1,1,2,2,2,2,2,0,1,1,0,0,0
565394604,565393500,68339896,59.396201899999994,24.6605965,2.3257744,-1.310279,-2.411009,-0.022485403,-0.0058500394,-0.06750712,-0.021535551,-0.030538399,-0.06794777,-0.081770435,0.037437953,0.037413422,0.009335578,0.20057838,0.23564585,-0.26169944,-0.15296787,-0.01406361,28.05643,0.1,0.1837298,0.18222809,0.1095025,0.08142487,inf,inf,inf,inf,1,1,1,1,2,2,2,2,2,0,1,1,0,0,0
565404682,565403519,68339896,59.396201899999994,24.6605965,2.3254552,-1.3100617,-2.4118502,-0.022485403,-0.0058500394,-0.06750712,-0.022167405,-0.030768633,-0.068929896,-0.082771525,0.037437953,0.037413422,0.009335578,-0.004985612,0.049491063,-0.19446352,-0.15293285,-0.01406361,28.05643,0.1,0.18445519,0.18279602,0.1099414,0.081633024,inf,inf,inf,inf,1,1,1,1,2,2,2,2,2,0,1,1,0,0,0
565414823,565413538,68339896,59.396201899999994,24.6605965,2.3251371,-1.3098674,-2.4126945,-0.022485403,-0.0058500394,-0.06750712,-0.022659168,-0.03106812,-0.06948004,-0.08333402,0.037437953,0.037413422,0.009335578,-0.1415384,0.0692207,-0.02738924,-0.15289432,-0.01406361,28.05643,0.1,0.18518575,0.1833665,0.110382564,0.081841245,inf,inf,inf,inf,1,1,1,1,2,2,2,2,2,0,1,1,0,0,0
565424582,565423557,68339896,59.396201899999994,24.6605965,2.3248186,-1.3096918,-2.4135423,-0.022485403,-0.0058500394,-0.06750712,-0.022781897,-0.030893883,-0.07099073,-0.084850736,0.037437953,0.037413422,0.009335578,-0.055124857,0.056936044,-0.19320147,-0.15289572,-0.01406361,28.05643,0.1,0.18592148,0.18393959,0.11082428,0.08204962,inf,inf,inf,inf,1,1,1,1,2,2,2,2,2,0,1,1,0,0,0
565434608,565433577,68339896,59.396201899999994,24.6605965,2.324506,-1.3095379,-2.4144027,-0.022485403,-0.0058500394,-0.06750712,-0.02180015,-0.031173117,-0.07327298,-0.08713297,0.037437953,0.037413422,0.009335578,0.12839772,0.0717285,-0.21137977,-0.15291752,-0.01406361,28.05643,0.1,0.18666244,0.18451524,0.11126637,0.08225804,inf,inf,inf,inf,1,1,1,1,2,2,2,2,2,0,1,1,0,0,0
565444689,565443596,68339896,59.396201899999994,24.6605965,2.3242023,-1.3094013,-2.415274,-0.022485403,-0.0058500394,-0.06750712,-0.022473099,-0.03160181,-0.07409325,-0.087947436,0.037437953,0.037413422,0.009335578,-0.17152116,-0.1108158,-0.010338259,-0.15296899,-0.01406361,28.05643,0.1,0.18740858,0.18509346,0.111705914,0.0824665,inf,inf,inf,inf,1,1,1,1,2,2,2,2,2,0,1,1,0,0,0
565454759,565453616,68339896,59.396201899999994,24.6605965,2.3238993,-1.3092877,-2.4162807,-0.022485403,-0.0058500394,-0.06750712,-0.021700911,-0.031309847,-0.075212486,-0.089191385,0.037437953,0.037413422,0.009335578,0.07894773,0.15530019,-0.096699566,-0.15300184,-0.01406361,28.05643,0.1,0.18815991,0.18541354,0.112150535,0.08261762,inf,inf,inf,inf,1,1,1,1,2,2,2,2,2,0,1,1,0,0,0
565464775,565463638,68339896,59.396201899999994,24.6605965,2.323605,-1.3091897,-2.4172845,-0.022485403,-0.0058500394,-0.06750712,-0.021306295,-0.031943556,-0.07652234,-0.090614714,0.037437953,0.037413422,0.009335578,0.058301084,-0.09069638,-0.32206446,-0.15298134,-0.01406361,28.05643,0.1,0.1889165,0.18599609,0.112595506,0.08282623,inf,inf,inf,inf,1,1,1,1,2,2,2,2,2,0,1,1,0,0,0
565474858,565473654,68339896,59.396201899999994,24.6605965,2.323316,-1.3091128,-2.4182985,-0.022485403,-0.0058500394,-0.06750712,-0.021506017,-0.03200047,-0.0778439,-0.09203895,0.037437953,0.037413422,0.009335578,-0.038413383,0.011697913,-0.054639474,-0.15296271,-0.01406361,28.05643,0.1,0.18967831,0.18658122,0.11303659,0.083034925,inf,inf,inf,inf,1,1,1,1,2,2,2,2,2,0,1,1,0,0,0
565485415,565483673,68339896,59.396201899999994,24.6605965,2.3229277,-1.3089051,-2.4190626,-0.022485403,-0.0058500394,-0.06750712,-0.021739429,-0.032336857,-0.07803814,-0.092067614,0.037437953,0.037413422,0.009335578,-0.031934932,-0.12014252,-0.09993409,-0.15292087,-0.01406361,28.05643,0.101490736,0.18125267,0.18049833,0.10802628,0.080754615,inf,inf,inf,inf,1,1,1,1,2,2,2,2,2,0,1,1,0,0,0
565494780,565493692,68339896,59.396201899999994,24.6605965,2.3225446,-1.308716,-2.4198306,-0.022485403,-0.0058500394,-0.06750712,-0.020815508,-0.032145347,-0.07917613,-0.09304129,0.037437953,0.037413422,0.009335578,0.2388812,-0.1571228,-0.24389315,-0.15292032,-0.01406361,28.05643,0.10161996,0.1819605,0.18105806,0.10846743,0.08096267,inf,inf,inf,inf,1,1,1,1,2,2,2,2,2,0,1,1,0,0,0
565504873,565503712,68339896,59.396201899999994,24.6605965,2.322174,-1.3085524,-2.4206219,-0.022485403,-0.0058500394,-0.06750712,-0.021354735,-0.032409932,-0.08205304,-0.0957552,0.037437953,0.037413422,0.009335578,-0.10786705,-0.018076962,-0.16794778,-0.15298717,-0.01406361,28.05643,0.10175848,0.18267345,0.18162036,0.10890442,0.08117065,inf,inf,inf,inf,1,1,1,1,2,2,2,2,2,0,1,1,0,0,0
565515480,565513735,68339896,59.396201899999994,24.6605965,2.3218052,-1.308409,-2.4215598,-0.022485403,-0.0058500394,-0.06750712,-0.022045095,-0.03307646,-0.08292073,-0.096597336,0.037437953,0.037413422,0.009335578,-0.1955939,-0.19568063,-0.16592076,-0.15302105,-0.01406361,28.05643,0.1,0.18339156,0.18193892,0.10934173,0.0813256,inf,inf,inf,inf,1,1,1,1,2,2,2,2,2,0,1,1,0,0,0
565524913,565523750,68339896,59.396201899999994,24.6605965,2.3214378,-1.3082844,-2.4225004,-0.022485403,-0.0058500394,-0.06750712,-0.020777177,-0.033096284,-0.083258994,-0.09690541,0.037437953,0.037413422,0.009335578,0.3113276,-0.26752904,-0.015175188,-0.15303504,-0.01406361,28.05643,0.1,0.18411483,0.1825056,0.10978281,0.08153373,inf,inf,inf,inf,1,1,1,1,2,2,2,2,2,0,1,1,0,0,0
565534879,565533769,68339896,59.396201899999994,24.6605965,2.3210819,-1.3081722,-2.4234502,-0.022485403,-0.0058500394,-0.06750712,-0.022390563,-0.032339327,-0.08604357,-0.09965536,0.037437953,0.037413422,0.009335578,-0.37284365,-0.23692127,-0.20097917,-0.1529594,-0.01406361,28.05643,0.1,0.18484326,0.18307483,0.11022696,0.08174204,inf,inf,inf,inf,1,1,1,1,2,2,2,2,2,0,1,1,0,0,0
565545540,565543788,68339896,59.396201899999994,24.6605965,2.3207235,-1.308081,-2.4244113,-0.022485403,-0.0058500394,-0.06750712,-0.021683287,-0.03236072,-0.08603446,-0.09960741,0.037437953,0.037413422,0.009335578,0.0243572,-0.032660957,0.07791398,-0.15287004,-0.01406361,28.05643,0.1,0.18557689,0.18364665,0.11066688,0.08195029,inf,inf,inf,inf,1,1,1,1,2,2,2,2,2,0,1,1,0,0,0
565554894,565553808,68339896,59.396201899999994,24.6605965,2.3203695,-1.3080137,-2.4253728,-0.022485403,-0.0058500394,-0.06750712,-0.021375004,-0.032604218,-0.08648604,-0.10001613,0.037437953,0.037413422,0.009335578,0.21176696,0.16439602,0.117543295,-0.1528672,-0.01406361,28.05643,0.1,0.18631569,0.18422104,0.11110841,0.08215871,inf,inf,inf,inf,1,1,1,1,2,2,2,2,2,0,1,1,0,0,0
565565033,565563835,68339896,59.396201899999994,24.6605965,2.3200307,-1.3079624,-2.426333,-0.022485403,-0.0058500394,-0.06750712,-0.021368079,-0.032641113,-0.08835101,-0.101834424,0.037437953,0.037413422,0.009335578,-0.18646163,0.0980734,-0.31941774,-0.1529298,-0.01406361,28.05643,0.1,0.18705972,0.18479802,0.11155166,0.08236721,inf,inf,inf,inf,1,1,1,1,2,2,2,2,2,0,1,1,0,0,0
565574926,565573846,68339896,59.396201899999994,24.6605965,2.3196938,-1.3079283,-2.4273121,-0.022485403,-0.0058500394,-0.06750712,-0.020435171,-0.03353716,-0.08984494,-0.10327807,0.037437953,0.037413422,0.009335578,0.22074397,-0.11473163,0.016302785,-0.15300082,-0.01406361,28.05643,0.1001842,0.18780896,0.18537758,0.11199459,0.08257569,inf,inf,inf,inf,1,1,1,1,2,2,2,2,2,0,1,1,0,0,0
565585059,565583869,68339896,59.396201899999994,24.6605965,2.3193624,-1.3079149,-2.4284317,-0.022485403,-0.0058500394,-0.06750712,-0.021530868,-0.03355607,-0.091096476,-0.10461371,0.037437953,0.037413422,0.009335578,-0.074604064,-0.011582133,-0.12928644,-0.15300518,-0.01406361,28.05643,0.1,0.1885634,0.18569778,0.11243545,0.08272652,inf,inf,inf,inf,1,1,1,1,2,2,2,2,2,0,1,1,0,0,0
565594979,565593885,68339896,59.396201899999994,24.6605965,2.319035,-1.3079104,-2.4295547,-0.022485403,-0.0058500394,-0.06750712,-0.021509478,-0.0335593,-0.092672534,-0.10626457,0.037437953,0.037413422,0.009335578,-0.18028592,-0.22678515,-0.22359277,-0.15291731,-0.01406361,28.05643,0.1,0.18932311,0.18628165,0.11287984,0.08293521,inf,inf,inf,inf,1,1,1,1,2,2,2,2,2,0,1,1,0,0,0
565605601,565603904,68339896,59.396201899999994,24.6605965,2.318693,-1.3076236,-2.43045,-0.022485403,-0.0058500394,-0.06750712,-0.02167266,-0.0336705,-0.09534104,-0.10874298,0.037437953,0.037413422,0.009335578,0.14743711,-0.17410736,-0.28944603,-0.15286262,-0.01406361,28.05643,0.1037097,0.18094875,0.18022932,0.10790246,0.08066632,inf,inf,inf,inf,1,1,1,1,2,2,2,2,2,0,1,1,0,0,0
565615780,565613924,68339896,59.396201899999994,24.6605965,2.3183572,-1.3073612,-2.4313629,-0.022485403,-0.0058500394,-0.06750712,-0.022000926,-0.03381446,-0.09652841,-0.10974282,0.037437953,0.037413422,0.009335578,-0.07317351,-0.17063037,-0.125304,-0.15285993,-0.01406361,28.05643,0.10384154,0.1816548,0.18078794,0.10833974,0.08087423,inf,inf,inf,inf,1,1,1,1,2,2,2,2,2,0,1,1,0,0,0
565625032,565623947,68339896,59.396201899999994,24.6605965,2.318029,-1.3071245,-2.432281,-0.022485403,-0.0058500394,-0.06750712,-0.021513926,-0.033140525,-0.0967626,-0.109792046,0.037437953,0.037413422,0.009335578,-0.072045445,0.12087775,-0.086409524,-0.15290059,-0.01406361,28.05643,0.10397267,0.182366,0.18134911,0.1087753,0.08108232,inf,inf,inf,inf,1,1,1,1,2,2,2,2,2,0,1,1,0,0,0
565635104,565633963,68339896,59.396201899999994,24.6605965,2.3177044,-1.3069121,-2.433211,-0.022485403,-0.0058500394,-0.06750712,-0.021066908,-0.03385861,-0.099044286,-0.1118913,0.037437953,0.037413422,0.009335578,0.16925274,0.069472656,-0.29505134,-0.15295202,-0.01406361,28.05643,0.104100704,0.18308231,0.18191287,0.109219134,0.081290245,inf,inf,inf,inf,1,1,1,1,2,2,2,2,2,0,1,1,0,0,0
565645421,565643981,68339896,59.396201899999994,24.6605965,2.3173864,-1.3067162,-2.434273,-0.022485403,-0.0058500394,-0.06750712,-0.02137869,-0.03356719,-0.09916968,-0.111957386,0.037437953,0.037413422,0.009335578,0.010864095,-0.09816221,0.03348484,-0.15296392,-0.01406361,28.05643,0.10142183,0.1838038,0.18223166,0.109656595,0.081444986,inf,inf,inf,inf,1,1,1,1,2,2,2,2,2,0,1,1,0,0,0
565655072,565654000,68339896,59.396201899999994,24.6605965,2.3170776,-1.3065463,-2.4353313,-0.022485403,-0.0058500394,-0.06750712,-0.02055725,-0.033852845,-0.10007004,-0.112795606,0.037437953,0.037413422,0.009335578,0.03262272,0.104619555,-0.24385461,-0.1529241,-0.01406361,28.05643,0.10164881,0.18453047,0.18279979,0.11009434,0.08165321,inf,inf,inf,inf,1,1,1,1,2,2,2,2,2,0,1,1,0,0,0
565665142,565664019,68339896,59.396201899999994,24.6605965,2.3167753,-1.3063936,-2.4364007,-0.022485403,-0.0058500394,-0.06750712,-0.020064695,-0.03358922,-0.10204092,-0.11470166,0.037437953,0.037413422,0.009335578,0.17351384,0.04893617,-0.3342523,-0.15289259,-0.01406361,28.05643,0.10187411,0.18526228,0.1833705,0.11053832,0.08186149,inf,inf,inf,inf,1,1,1,1,2,2,2,2,2,0,1,1,0,0,0
565675074,565674038,68339896,59.396201899999994,24.6605965,2.3164766,-1.3062587,-2.437489,-0.022485403,-0.0058500394,-0.06750712,-0.020679183,-0.033943184,-0.10376179,-0.116355196,0.037437953,0.037413422,0.009335578,0.050592706,-0.05310579,-0.15542945,-0.15288232,-0.01406361,28.05643,0.10210276,0.18599932,0.18394376,0.110980496,0.08206994,inf,inf,inf,inf,1,1,1,1,2,2,2,2,2,0,1,1,0,0,0
565685176,565684057,68339896,59.396201899999994,24.6605965,2.3161826,-1.3061512,-2.4385817,-0.022485403,-0.0058500394,-0.06750712,-0.020685134,-0.034757216,-0.10517632,-0.1177,0.037437953,0.037413422,0.009335578,-0.08228818,-0.01189902,-0.30960783,-0.15293111,-0.01406361,28.05643,0.10232115,0.18674156,0.18451962,0.11142316,0.0822783,inf,inf,inf,inf,1,1,1,1,2,2,2,2,2,0,1,1,0,0,0
565695105,565694077,68339896,59.396201899999994,24.6605965,2.31589,-1.3060632,-2.4396935,-0.022485403,-0.0058500394,-0.06750712,-0.020691816,-0.034166716,-0.10746264,-0.11991437,0.037437953,0.037413422,0.009335578,0.008739745,0.14854987,-0.3107357,-0.15296747,-0.01406361,28.05643,0.10254431,0.18748902,0.18509804,0.11186751,0.0824868,inf,inf,inf,inf,1,1,1,1,2,2,2,2,2,0,1,1,0,0,0
565705081,565704096,68339896,59.396201899999994,24.6605965,2.3156035,-1.3059915,-2.440821,-0.022485403,-0.0058500394,-0.06750712,-0.020631323,-0.034691334,-0.108978555,-0.12135622,0.037437953,0.037413422,0.009335578,-0.07232149,0.018806517,-0.22002824,-0.15295818,-0.01406361,28.05643,0.102761745,0.1882417,0.18567903,0.11231581,0.08269533,inf,inf,inf,inf,1,1,1,1,2,2,2,2,2,0,1,1,0,0,0
565716048,565714115,68339896,59.396201899999994,24.6605965,2.315325,-1.305934,-2.4421,-0.022485403,-0.0058500394,-0.06750712,-0.019817088,-0.0332803,-0.11044062,-0.122885995,0.037437953,0.037413422,0.009335578,-0.030985242,0.2629277,-0.13211237,-0.15293154,-0.01406361,28.05643,0.1,0.18899964,0.18599941,0.112760216,0.082845785,inf,inf,inf,inf,1,1,1,1,2,2,2,2,2,0,1,1,0,0,0
565725920,565724134,68339896,59.396201899999994,24.6605965,2.3149686,-1.3056203,-2.4430616,-0.022485403,-0.0058500394,-0.06750712,-0.020432439,-0.03438504,-0.11156834,-0.1237335,0.037437953,0.037413422,0.009335578,0.14380434,-0.019617675,-0.20185857,-0.15291296,-0.01406361,28.05643,0.10768294,0.18067114,0.17997561,0.107797995,0.080587275,inf,inf,inf,inf,1,1,1,1,2,2,2,2,2,0,1,1,0,0,0
565735268,565734154,68339896,59.396201899999994,24.6605965,2.314627,-1.3053322,-2.444047,-0.022485403,-0.0058500394,-0.06750712,-0.020316133,-0.03456159,-0.1135668,-0.12545873,0.037437953,0.037413422,0.009335578,-0.2776273,-0.06714583,-0.044040877,-0.15291156,-0.01406361,28.05643,0.10775089,0.1813757,0.18053322,0.108239025,0.08079526,inf,inf,inf,inf,1,1,1,1,2,2,2,2,2,0,1,1,0,0,0
565745535,565744173,68339896,59.396201899999994,24.6605965,2.3142862,-1.305075,-2.445047,-0.022485403,-0.0058500394,-0.06750712,-0.019679248,-0.03487118,-0.11498826,-0.12661377,0.037437953,0.037413422,0.009335578,0.105487645,0.09831231,-0.14276898,-0.152956,-0.01406361,28.05643,0.10782051,0.18208541,0.1810934,0.10867456,0.08100323,inf,inf,inf,inf,1,1,1,1,2,2,2,2,2,0,1,1,0,0,0
565755373,565754194,68339896,59.396201899999994,24.6605965,2.3139455,-1.3048347,-2.4460678,-0.022485403,-0.0058500394,-0.06750712,-0.020540506,-0.034996428,-0.11724626,-0.12861192,0.037437953,0.037413422,0.009335578,0.12405402,-0.18463628,-0.2929627,-0.15299116,-0.01406361,28.05643,0.10790324,0.18280025,0.18165614,0.10911375,0.08121137,inf,inf,inf,inf,1,1,1,1,2,2,2,2,2,0,1,1,0,0,0
565765329,565764211,68339896,59.396201899999994,24.6605965,2.3136213,-1.30462,-2.4471133,-0.022485403,-0.0058500394,-0.06750712,-0.019437851,-0.034048807,-0.119718604,-0.13083085,0.037437953,0.037413422,0.009335578,-0.085222945,0.2512794,-0.31037742,-0.15302348,-0.01406361,28.05643,0.107994795,0.18352024,0.18222144,0.109555796,0.08141952,inf,inf,inf,inf,1,1,1,1,2,2,2,2,2,0,1,1,0,0,0
565775360,565774230,68339896,59.396201899999994,24.6605965,2.3132982,-1.3044217,-2.4483087,-0.022485403,-0.0058500394,-0.06750712,-0.019847872,-0.034374032,-0.12010177,-0.13110165,0.037437953,0.037413422,0.009335578,0.033951383,0.04616619,0.011835261,-0.15300448,-0.01406361,28.05643,0.10495353,0.18424542,0.18254057,0.10999781,0.08157383,inf,inf,inf,inf,1,1,1,1,2,2,2,2,2,0,1,1,0,0,0
565785252,565784250,68339896,59.396201899999994,24.6605965,2.3129804,-1.304243,-2.44951,-0.022485403,-0.0058500394,-0.06750712,-0.019541668,-0.034614418,-0.12173115,-0.13261881,0.037437953,0.037413422,0.009335578,0.05489926,-0.059383325,-0.22321054,-0.15296206,-0.01406361,28.05643,0.10515618,0.1849758,0.18311027,0.11043996,0.08178213,inf,inf,inf,inf,1,1,1,1,2,2,2,2,2,0,1,1,0,0,0
565795339,565794269,68339896,59.396201899999994,24.6605965,2.3126733,-1.3040897,-2.4507256,-0.022485403,-0.0058500394,-0.06750712,-0.01920122,-0.034401756,-0.123301916,-0.1340776,0.037437953,0.037413422,0.009335578,-0.03262002,0.19328116,-0.2501228,-0.15299243,-0.01406361,28.05643,0.10535288,0.18571137,0.18368252,0.11088562,0.08199046,inf,inf,inf,inf,1,1,1,1,2,2,2,2,2,0,1,1,0,0,0
565805310,565804289,68339896,59.396201899999994,24.6605965,2.3123734,-1.303957,-2.4519565,-0.022485403,-0.0058500394,-0.06750712,-0.018699383,-0.035621252,-0.124535084,-0.13519907,0.037437953,0.037413422,0.009335578,0.028534621,-0.09557545,-0.068912625,-0.15303046,-0.01406361,28.05643,0.10554719,0.18645217,0.18425736,0.11132777,0.0821989,inf,inf,inf,inf,1,1,1,1,2,2,2,2,2,0,1,1,0,0,0
565815681,565814307,68339896,59.396201899999994,24.6605965,2.312073,-1.3038436,-2.453193,-0.022485403,-0.0058500394,-0.06750712,-0.019231297,-0.03642779,-0.12602039,-0.136573,0.037437953,0.037413422,0.009335578,0.123932354,-0.40577796,-0.39076084,-0.15305586,-0.01406361,28.05643,0.10573268,0.18719818,0.18483476,0.1117721,0.08240739,inf,inf,inf,inf,1,1,1,1,2,2,2,2,2,0,1,1,0,0,0
565825505,565824326,68339896,59.396201899999994,24.6605965,2.311782,-1.3037525,-2.4544504,-0.022485403,-0.0058500394,-0.06750712,-0.019331269,-0.03560856,-0.12786761,-0.1383092,0.037437953,0.037413422,0.009335578,-0.20303342,-0.092182174,-0.09904249,-0.15307102,-0.01406361,28.05643,0.105923414,0.18794942,0.18541475,0.112216644,0.08261595,inf,inf,inf,inf,1,1,1,1,2,2,2,2,2,0,1,1,0,0,0
565835476,565834347,68339896,59.396201899999994,24.6605965,2.3114884,-1.3036773,-2.4557214,-0.022485403,-0.0058500394,-0.06750712,-0.018947372,-0.035970345,-0.12932682,-0.1396578,0.037437953,0.037413422,0.009335578,0.15004627,-0.18921489,-0.15673846,-0.1530653,-0.01406361,28.05643,0.10610986,0.18870592,0.1859973,0.112663455,0.082824565,inf,inf,inf,inf,1,1,1,1,2,2,2,2,2,0,1,1,0,0,0
565846305,565844365,68339896,59.396201899999994,24.6605965,2.311169,-1.3034172,-2.4568355,-0.022485403,-0.0058500394,-0.06750712,-0.019768778,-0.034713797,-0.12998089,-0.14002277,0.037437953,0.037413422,0.009335578,0.02138519,0.035585254,-0.056011293,-0.15305094,-0.01406361,28.05643,0.11029577,0.18041779,0.17973644,0.10772339,0.08051693,inf,inf,inf,inf,1,1,1,1,2,2,2,2,2,0,1,1,0,0,0
565855542,565854384,68339896,59.396201899999994,24.6605965,2.3108613,-1.303179,-2.4579685,-0.022485403,-0.0058500394,-0.06750712,-0.018533563,-0.03484991,-0.1327247,-0.1424857,0.037437953,0.037413422,0.009335578,0.016418966,0.08274552,-0.30804548,-0.1530504,-0.01406361,28.05643,0.11033487,0.18112117,0.18029313,0.108164765,0.08072479,inf,inf,inf,inf,1,1,1,1,2,2,2,2,2,0,1,1,0,0,0
565865473,565864403,68339896,59.396201899999994,24.6605965,2.3105583,-1.3029681,-2.459122,-0.022485403,-0.0058500394,-0.06750712,-0.018437305,-0.035672106,-0.13342476,-0.14291286,0.037437953,0.037413422,0.009335578,0.18327379,0.021552986,-0.10325234,-0.1530746,-0.01406361,28.05643,0.110370636,0.18182968,0.1808524,0.10860759,0.08093285,inf,inf,inf,inf,1,1,1,1,2,2,2,2,2,0,1,1,0,0,0
565875406,565874423,68339896,59.396201899999994,24.6605965,2.310258,-1.3027836,-2.4602923,-0.022485403,-0.0058500394,-0.06750712,-0.019405685,-0.03646358,-0.13528927,-0.14451225,0.037437953,0.037413422,0.009335578,-0.062113438,-0.071496874,-0.15532865,-0.15311103,-0.01406361,28.05643,0.11040878,0.18254335,0.18141425,0.109043606,0.0811409,inf,inf,inf,inf,1,1,1,1,2,2,2,2,2,0,1,1,0,0,0
565885492,565884442,68339896,59.396201899999994,24.6605965,2.3099706,-1.3026234,-2.4614758,-0.022485403,-0.0058500394,-0.06750712,-0.018116076,-0.036526978,-0.13571075,-0.14467615,0.037437953,0.037413422,0.009335578,-0.10961967,-0.007541918,-0.104661815,-0.15309192,-0.01406361,28.05643,0.11044741,0.18326218,0.18197866,0.109486565,0.081349075,inf,inf,inf,inf,1,1,1,1,2,2,2,2,2,0,1,1,0,0,0
565895649,565894461,68339896,59.396201899999994,24.6605965,2.3096826,-1.3024814,-2.4626768,-0.022485403,-0.0058500394,-0.06750712,-0.018619785,-0.03650445,-0.13691042,-0.14562558,0.037437953,0.037413422,0.009335578,0.06706188,-0.07542813,0.024255635,-0.15306553,-0.01406361,28.05643,0.1104846,0.18398622,0.18254565,0.1099282,0.08155729,inf,inf,inf,inf,1,1,1,1,2,2,2,2,2,0,1,1,0,0,0
565905618,565904480,68339896,59.396201899999994,24.6605965,2.309402,-1.3023568,-2.464022,-0.022485403,-0.0058500394,-0.06750712,-0.018521657,-0.03593096,-0.13856624,-0.14717379,0.037437953,0.037413422,0.009335578,-0.10845924,0.019167861,-0.16782205,-0.15306248,-0.01406361,28.05643,0.10736656,0.18471542,0.1828651,0.11037045,0.08171138,inf,inf,inf,inf,1,1,1,1,2,2,2,2,2,0,1,1,0,0,0
565916246,565914499,68339896,59.396201899999994,24.6605965,2.3091302,-1.3022573,-2.465381,-0.022485403,-0.0058500394,-0.06750712,-0.018048283,-0.036819264,-0.13944344,-0.14794436,0.037437953,0.037413422,0.009335578,-0.1444933,0.06027782,-0.04607742,-0.15306771,-0.01406361,28.05643,0.10752058,0.18544984,0.18343645,0.11081278,0.08191972,inf,inf,inf,inf,1,1,1,1,2,2,2,2,2,0,1,1,0,0,0
565925574,565924518,68339896,59.396201899999994,24.6605965,2.308856,-1.3021785,-2.4667537,-0.022485403,-0.0058500394,-0.06750712,-0.018593138,-0.036546875,-0.14164956,-0.15004483,0.037437953,0.037413422,0.009335578,0.009808334,0.087625615,-0.19145969,-0.15312123,-0.01406361,28.05643,0.10767245,0.18618946,0.18401039,0.11125653,0.082128115,inf,inf,inf,inf,1,1,1,1,2,2,2,2,2,0,1,1,0,0,0
565935675,565934538,68339896,59.396201899999994,24.6605965,2.3085866,-1.3021145,-2.4681318,-0.022485403,-0.0058500394,-0.06750712,-0.01871472,-0.03774649,-0.14115886,-0.14944948,0.037437953,0.037413422,0.009335578,-0.16499527,-0.31200334,0.018038638,-0.15314849,-0.01406361,28.05643,0.10781193,0.18693432,0.1845869,0.11170132,0.08233666,inf,inf,inf,inf,1,1,1,1,2,2,2,2,2,0,1,1,0,0,0
565945611,565944557,68339896,59.396201899999994,24.6605965,2.3083227,-1.3020747,-2.4695199,-0.022485403,-0.0058500394,-0.06750712,-0.017634148,-0.0373879,-0.14319237,-0.15137933,0.037437953,0.037413422,0.009335578,0.063526824,-0.06255022,-0.12651527,-0.15313895,-0.01406361,28.05643,0.10794926,0.18768442,0.18516597,0.112143055,0.082545094,inf,inf,inf,inf,1,1,1,1,2,2,2,2,2,0,1,1,0,0,0
565955589,565954576,68339896,59.396201899999994,24.6605965,2.308059,-1.3020515,-2.4709198,-0.022485403,-0.0058500394,-0.06750712,-0.019206,-0.037385225,-0.14377058,-0.15185492,0.037437953,0.037413422,0.009335578,-0.1950744,-0.014458048,0.04506149,-0.15311463,-0.01406361,28.05643,0.10807943,0.18843974,0.18574764,0.11259332,0.082753815,inf,inf,inf,inf,1,1,1,1,2,2,2,2,2,0,1,1,0,0,0
565965793,565964595,68339896,59.396201899999994,24.6605965,2.3077996,-1.3020365,-2.4723258,-0.022485403,-0.0058500394,-0.06750712,-0.017812245,-0.03759294,-0.1447549,-0.15273768,0.037437953,0.037413422,0.009335578,-0.014093812,-0.31855208,-0.014783197,-0.153084,-0.01406361,28.05643,0.108195305,0.18920034,0.18633188,0.11303725,0.08296254,inf,inf,inf,inf,1,1,1,1,2,2,2,2,2,0,1,1,0,0,0
565976365,565974614,68339896,59.396201899999994,24.6605965,2.3074765,-1.3017359,-2.4733768,-0.022485403,-0.0058500394,-0.06750712,-0.017698843,-0.036957394,-0.1461351,-0.15362948,0.037437953,0.037413422,0.009335578,0.17031425,0.098536976,-0.09404955,-0.15310873,-0.01406361,28.05643,0.11706233,0.18083441,0.18003495,0.108042724,0.08063991,inf,inf,inf,inf,1,1,1,1,2,2,2,2,2,0,1,1,0,0,0
565985659,565984636,68339896,59.396201899999994,24.6605965,2.3071585,-1.3014576,-2.4744565,-0.022485403,-0.0058500394,-0.06750712,-0.019162446,-0.037829105,-0.14739074,-0.15441458,0.037437953,0.037413422,0.009335578,-0.2180303,-0.21052632,0.06359054,-0.15316895,-0.01406361,28.05643,0.11688256,0.18154125,0.18059316,0.10847961,0.08084801,inf,inf,inf,inf,1,1,1,1,2,2,2,2,2,0,1,1,0,0,0
565995744,565994653,68339896,59.396201899999994,24.6605965,2.3068397,-1.3012006,-2.475548,-0.022485403,-0.0058500394,-0.06750712,-0.018150039,-0.036990065,-0.14824764,-0.15481825,0.037437953,0.037413422,0.009335578,0.16043268,-0.09700397,-0.2600792,-0.15319484,-0.01406361,28.05643,0.1167047,0.18225324,0.18115392,0.1089184,0.08105602,inf,inf,inf,inf,1,1,1,1,2,2,2,2,2,0,1,1,0,0,0
566005729,566004672,68339896,59.396201899999994,24.6605965,2.3065345,-1.300969,-2.4766653,-0.022485403,-0.0058500394,-0.06750712,-0.017527033,-0.0377425,-0.15001045,-0.15614456,0.037437953,0.037413422,0.009335578,0.08567945,-0.16204259,-0.19684295,-0.15320723,-0.01406361,28.05643,0.11653733,0.18297037,0.18171728,0.10935994,0.08126412,inf,inf,inf,inf,1,1,1,1,2,2,2,2,2,0,1,1,0,0,0
566016058,566014691,68339896,59.396201899999994,24.6605965,2.3062258,-1.3007611,-2.4778078,-0.022485403,-0.0058500394,-0.06750712,-0.019624637,-0.037706353,-0.15105794,-0.15677176,0.037437953,0.037413422,0.009335578,-0.15435301,-0.15585431,-0.12030284,-0.15317291,-0.01406361,28.05643,0.1163795,0.18369271,0.1822832,0.10980033,0.08147239,inf,inf,inf,inf,1,1,1,1,2,2,2,2,2,0,1,1,0,0,0
566025841,566024711,68339896,59.396201899999994,24.6605965,2.3059182,-1.300575,-2.4789574,-0.022485403,-0.0058500394,-0.06750712,-0.018589301,-0.037765544,-0.15013506,-0.15544428,0.037437953,0.037413422,0.009335578,0.05801344,-0.12418113,-0.0058270143,-0.15310007,-0.01406361,28.05643,0.11621165,0.18442021,0.18285169,0.11024412,0.08168058,inf,inf,inf,inf,1,1,1,1,2,2,2,2,2,0,1,1,0,0,0
566036016,566034730,68339896,59.396201899999994,24.6605965,2.3056273,-1.3004074,-2.480247,-0.022485403,-0.0058500394,-0.06750712,-0.017170342,-0.03747768,-0.15278324,-0.15782705,0.037437953,0.037413422,0.009335578,0.09650518,-0.14570813,-0.2950657,-0.15312225,-0.01406361,28.05643,0.11317015,0.18515292,0.18317139,0.110680595,0.081834294,inf,inf,inf,inf,1,1,1,1,2,2,2,2,2,0,1,1,0,0,0
566045791,566044749,68339896,59.396201899999994,24.6605965,2.305335,-1.3002622,-2.4815607,-0.022485403,-0.0058500394,-0.06750712,-0.019560143,-0.038425222,-0.15393573,-0.15872334,0.037437953,0.037413422,0.009335578,-0.2686015,-0.3328926,-0.08815593,-0.153182,-0.01406361,28.05643,0.113138914,0.18589082,0.18374425,0.11112527,0.08204278,inf,inf,inf,inf,1,1,1,1,2,2,2,2,2,0,1,1,0,0,0
566055773,566054768,68339896,59.396201899999994,24.6605965,2.3050475,-1.3001415,-2.482892,-0.022485403,-0.0058500394,-0.06750712,-0.017676143,-0.03853148,-0.1548435,-0.15938386,0.037437953,0.037413422,0.009335578,-0.021384548,-0.22097908,0.11728679,-0.15321068,-0.01406361,28.05643,0.11311364,0.18663396,0.18431969,0.11156481,0.08225111,inf,inf,inf,inf,1,1,1,1,2,2,2,2,2,0,1,1,0,0,0
566065850,566064788,68339896,59.396201899999994,24.6605965,2.3047693,-1.3000406,-2.4842296,-0.022485403,-0.0058500394,-0.06750712,-0.016710825,-0.037660662,-0.15532109,-0.15962291,0.037437953,0.037413422,0.009335578,0.23674935,0.032327488,-0.06819477,-0.15323411,-0.01406361,28.05643,0.11308694,0.18738231,0.1848977,0.11200797,0.08245976,inf,inf,inf,inf,1,1,1,1,2,2,2,2,2,0,1,1,0,0,0
566075834,566074807,68339896,59.396201899999994,24.6605965,2.30449,-1.2999562,-2.4855902,-0.022485403,-0.0058500394,-0.06750712,-0.019984826,-0.037998524,-0.15766515,-0.16173683,0.037437953,0.037413422,0.009335578,-0.4390812,-0.03076271,-0.10519282,-0.15321252,-0.01406361,28.05643,0.11306763,0.18813589,0.1854783,0.11245427,0.082668364,inf,inf,inf,inf,1,1,1,1,2,2,2,2,2,0,1,1,0,0,0
566086003,566084836,68339896,59.396201899999994,24.6605965,2.3042092,-1.29989,-2.4869716,-0.022485403,-0.0058500394,-0.06750712,-0.017910305,-0.03797246,-0.15901703,-0.16286674,0.037437953,0.037413422,0.009335578,0.05175068,-0.020314205,-0.20835267,-0.15314226,-0.01406361,28.05643,0.11305046,0.18889476,0.18606147,0.112900436,0.082876965,inf,inf,inf,inf,1,1,1,1,2,2,2,2,2,0,1,1,0,0,0
566096062,566094845,68339896,59.396201899999994,24.6605965,2.3039427,-1.2998422,-2.488368,-0.022485403,-0.0058500394,-0.06750712,-0.016799938,-0.038484156,-0.16022749,-0.16386318,0.037437953,0.037413422,0.009335578,0.15886125,-0.11903989,-0.10134019,-0.15314154,-0.01406361,28.05643,0.11303449,0.18965888,0.18664722,0.11334553,0.08308576,inf,inf,inf,inf,1,1,1,1,2,2,2,2,2,0,1,1,0,0,0
566106211,566104864,68339896,59.396201899999994,24.6605965,2.303676,-1.2998168,-2.4899251,-0.022485403,-0.0058500394,-0.06750712,-0.019307872,-0.039618585,-0.162395,-0.16596703,0.037437953,0.037413422,0.009335578,-0.34859914,-0.30265737,-0.22480729,-0.15318456,-0.01406361,28.05643,0.10970616,0.19042827,0.18696819,0.11379441,0.08323525,inf,inf,inf,inf,1,1,1,1,2,2,2,2,2,0,1,1,0,0,0
566117109,566114883,68339896,59.396201899999994,24.6605965,2.3035076,-1.2996671,-2.4910548,-0.022485403,-0.0058500394,-0.06750712,-0.016915884,-0.038367916,-0.16320032,-0.16624378,0.037437953,0.037413422,0.009335578,0.07408758,-0.085733846,-0.049761396,-0.15324973,-0.01406361,28.05643,0.120441675,0.18187518,0.18084349,0.108679876,0.08093514,inf,inf,inf,inf,1,1,1,1,2,2,2,2,2,0,1,1,0,0,0
566125981,566124902,68339896,59.396201899999994,24.6605965,2.3033519,-1.2995392,-2.4922073,-0.022485403,-0.0058500394,-0.06750712,-0.01558997,-0.038717862,-0.1647293,-0.16726562,0.037437953,0.037413422,0.009335578,0.21420893,-0.021730527,-0.12915087,-0.15325359,-0.01406361,28.05643,0.120194435,0.18258946,0.18140535,0.10911235,0.08114329,inf,inf,inf,inf,1,1,1,1,2,2,2,2,2,0,1,1,0,0,0
566136058,566134922,68339896,59.396201899999994,24.6605965,2.3031998,-1.2994295,-2.4933796,-0.022485403,-0.0058500394,-0.06750712,-0.018104324,-0.038919043,-0.1650502,-0.16710013,0.037437953,0.037413422,0.009335578,-0.53443426,-0.14543852,-0.15087466,-0.15320872,-0.01406361,28.05643,0.119954824,0.18330885,0.18196978,0.10955871,0.08135151,inf,inf,inf,inf,1,1,1,1,2,2,2,2,2,0,1,1,0,0,0
566145958,566144944,68339896,59.396201899999994,24.6605965,2.303039,-1.2993405,-2.4945858,-0.022485403,-0.0058500394,-0.06750712,-0.015963867,-0.03814038,-0.16748975,-0.16907336,0.037437953,0.037413422,0.009335578,0.23860237,0.11386759,-0.12172068,-0.15313448,-0.01406361,28.05643,0.11972761,0.18403347,0.18253678,0.10999846,0.081559554,inf,inf,inf,inf,1,1,1,1,2,2,2,2,2,0,1,1,0,0,0
566155959,566154960,68339896,59.396201899999994,24.6605965,2.3028877,-1.2992723,-2.4958134,-0.022485403,-0.0058500394,-0.06750712,-0.015551125,-0.039120857,-0.16867605,-0.1698127,0.037437953,0.037413422,0.009335578,0.25047165,-0.03311785,-0.29437035,-0.15313064,-0.01406361,28.05643,0.11951113,0.18476325,0.18310635,0.11043899,0.081767984,inf,inf,inf,inf,1,1,1,1,2,2,2,2,2,0,1,1,0,0,0
566166110,566164984,68339896,59.396201899999994,24.6605965,2.3027434,-1.2992249,-2.4971952,-0.022485403,-0.0058500394,-0.06750712,-0.016839523,-0.039086986,-0.1692551,-0.1700947,0.037437953,0.037413422,0.009335578,-0.3823088,-0.017018482,-0.009121267,-0.15320258,-0.01406361,28.05643,0.11626077,0.18549824,0.18342608,0.11087918,0.08192142,inf,inf,inf,inf,1,1,1,1,2,2,2,2,2,0,1,1,0,0,0
566176733,566174998,68339896,59.396201899999994,24.6605965,2.3025835,-1.2991937,-2.4985886,-0.022485403,-0.0058500394,-0.06750712,-0.016353877,-0.040071845,-0.17009233,-0.17064725,0.037437953,0.037413422,0.009335578,0.32953653,-0.33588335,-0.16713783,-0.15324035,-0.01406361,28.05643,0.11617446,0.18623845,0.18400002,0.111325145,0.0821296,inf,inf,inf,inf,1,1,1,1,2,2,2,2,2,0,1,1,0,0,0
566186153,566185020,68339896,59.396201899999994,24.6605965,2.3024359,-1.299187,-2.5000014,-0.022485403,-0.0058500394,-0.06750712,-0.015330773,-0.039541006,-0.17129117,-0.1715733,0.037437953,0.037413422,0.009335578,0.18029019,0.014178812,-0.11874963,-0.15324797,-0.01406361,28.05643,0.11608577,0.18698388,0.18457653,0.11177005,0.08233824,inf,inf,inf,inf,1,1,1,1,2,2,2,2,2,0,1,1,0,0,0
566196267,566195037,68339896,59.396201899999994,24.6605965,2.302291,-1.2991948,-2.501427,-0.022485403,-0.0058500394,-0.06750712,-0.016638815,-0.03925621,-0.17169295,-0.1717139,0.037437953,0.037413422,0.009335578,-0.18403755,0.07138356,-0.09522655,-0.15323293,-0.01406361,28.05643,0.115997076,0.18773456,0.18515563,0.11221365,0.082546905,inf,inf,inf,inf,1,1,1,1,2,2,2,2,2,0,1,1,0,0,0
566206198,566205056,68339896,59.396201899999994,24.6605965,2.302136,-1.2992218,-2.502869,-0.022485403,-0.0058500394,-0.06750712,-0.01641543,-0.039235454,-0.1725619,-0.17233284,0.037437953,0.037413422,0.009335578,0.20084396,0.22423552,-0.12084055,-0.15317829,-0.01406361,28.05643,0.11590505,0.1884905,0.1857373,0.11266126,0.082755364,inf,inf,inf,inf,1,1,1,1,2,2,2,2,2,0,1,1,0,0,0
566216231,566215075,68339896,59.396201899999994,24.6605965,2.3019934,-1.2992643,-2.5043266,-0.022485403,-0.0058500394,-0.06750712,-0.014992085,-0.04000596,-0.17415944,-0.17369112,0.037437953,0.037413422,0.009335578,0.15782277,-0.009957636,-0.264394,-0.15314162,-0.01406361,28.05643,0.11581111,0.1892517,0.18632154,0.11310599,0.08296418,inf,inf,inf,inf,1,1,1,1,2,2,2,2,2,0,1,1,0,0,0
566226170,566225094,68339896,59.396201899999994,24.6605965,2.3018532,-1.299326,-2.5057986,-0.022485403,-0.0058500394,-0.06750712,-0.016429184,-0.04039673,-0.1742657,-0.1735686,0.037437953,0.037413422,0.009335578,-0.1913919,-0.074491195,-0.11574161,-0.15320952,-0.01406361,28.05643,0.11571622,0.19001816,0.18690838,0.113553405,0.08317307,inf,inf,inf,inf,1,1,1,1,2,2,2,2,2,0,1,1,0,0,0
566236338,566235114,68339896,59.396201899999994,24.6605965,2.3017035,-1.2994043,-2.5074236,-0.022485403,-0.0058500394,-0.06750712,-0.016108705,-0.04099591,-0.17533238,-0.17455734,0.037437953,0.037413422,0.009335578,0.17914551,-0.17516275,-0.19347756,-0.15324084,-0.01406361,28.05643,0.11235428,0.19078991,0.18722932,0.113997005,0.08332195,inf,inf,inf,inf,1,1,1,1,2,2,2,2,2,0,1,1,0,0,0
566246360,566245133,68339896,59.396201899999994,24.6605965,2.30157,-1.2994993,-2.5090587,-0.022485403,-0.0058500394,-0.06750712,-0.0143880155,-0.041168552,-0.17587797,-0.17502856,0.037437953,0.037413422,0.009335578,0.08980996,-0.19930951,-0.051463682,-0.15325673,-0.01406361,28.05643,0.11238289,0.19156693,0.18782045,0.11444887,0.08353096,inf,inf,inf,inf,1,1,1,1,2,2,2,2,2,0,1,1,0,0,0
566256157,566255152,68339896,59.396201899999994,24.6605965,2.30144,-1.2996113,-2.510698,-0.022485403,-0.0058500394,-0.06750712,-0.015531477,-0.041258577,-0.17560618,-0.17468588,0.037437953,0.037413422,0.009335578,-0.2686106,-0.09018859,0.16846107,-0.15326604,-0.01406361,28.05643,0.11239457,0.19234928,0.18841416,0.11489745,0.08373997,inf,inf,inf,inf,1,1,1,1,2,2,2,2,2,0,1,1,0,0,0
566266318,566265173,68339896,59.396201899999994,24.6605965,2.3012989,-1.2997369,-2.512337,-0.022485403,-0.0058500394,-0.06750712,-0.015132705,-0.041042797,-0.17566058,-0.17467277,0.037437953,0.037413422,0.009335578,0.22646275,-0.024381174,-0.06440302,-0.15320677,-0.01406361,28.05643,0.11239171,0.19313696,0.18901046,0.11534425,0.083948866,inf,inf,inf,inf,1,1,1,1,2,2,2,2,2,0,1,1,0,0,0
566276952,566275191,68339896,59.396201899999994,24.6605965,2.3010547,-1.2996017,-2.5134614,-0.022485403,-0.0058500394,-0.06750712,-0.014233148,-0.041163217,-0.1757434,-0.17414549,0.037437953,0.037413422,0.009335578,0.07322598,0.16179776,0.07494189,-0.15319398,-0.01406361,28.05643,0.124831915,0.18416885,0.18267342,0.109979235,0.08156817,inf,inf,inf,inf,1,1,1,1,2,2,2,2,2,0,1,1,0,0,0
566286353,566285210,68339896,59.396201899999994,24.6605965,2.3008173,-1.2994875,-2.5146055,-0.022485403,-0.0058500394,-0.06750712,-0.014569065,-0.042180084,-0.17652465,-0.17434351,0.037437953,0.037413422,0.009335578,-0.052263655,-0.12708113,-0.12826638,-0.15324652,-0.01406361,28.05643,0.12438011,0.18489842,0.18324313,0.11042076,0.08177643,inf,inf,inf,inf,1,1,1,1,2,2,2,2,2,0,1,1,0,0,0
566296472,566295229,68339896,59.396201899999994,24.6605965,2.3005755,-1.2993952,-2.5158746,-0.022485403,-0.0058500394,-0.06750712,-0.014830088,-0.041038062,-0.17571117,-0.173084,0.037437953,0.037413422,0.009335578,0.15384214,0.17414725,0.0027374357,-0.15329167,-0.01406361,28.05643,0.12134981,0.18563318,0.18356244,0.11085987,0.08192952,inf,inf,inf,inf,1,1,1,1,2,2,2,2,2,0,1,1,0,0,0
566306387,566305248,68339896,59.396201899999994,24.6605965,2.3003418,-1.2993214,-2.5171595,-0.022485403,-0.0058500394,-0.06750712,-0.014670871,-0.042107057,-0.17690317,-0.17385021,0.037437953,0.037413422,0.009335578,-0.0020022874,-0.084058896,-0.15637113,-0.15330952,-0.01406361,28.05643,0.12101269,0.18637316,0.18413651,0.11130082,0.082137875,inf,inf,inf,inf,1,1,1,1,2,2,2,2,2,0,1,1,0,0,0
566316433,566315268,68339896,59.396201899999994,24.6605965,2.3001187,-1.2992678,-2.5184667,-0.022485403,-0.0058500394,-0.06750712,-0.014160841,-0.042231336,-0.17703407,-0.17357485,0.037437953,0.037413422,0.009335578,-0.113060154,-0.14610021,0.010073506,-0.1533021,-0.01406361,28.05643,0.12068415,0.18711834,0.18471316,0.11174529,0.08234642,inf,inf,inf,inf,1,1,1,1,2,2,2,2,2,0,1,1,0,0,0
566326430,566325287,68339896,59.396201899999994,24.6605965,2.299888,-1.2992282,-2.519785,-0.022485403,-0.0058500394,-0.06750712,-0.01521467,-0.0409186,-0.17724875,-0.17340213,0.037437953,0.037413422,0.009335578,0.04339117,0.038303614,-0.11036268,-0.1532545,-0.01406361,28.05643,0.12035489,0.18786876,0.18529236,0.11218617,0.08255479,inf,inf,inf,inf,1,1,1,1,2,2,2,2,2,0,1,1,0,0,0
566336310,566335306,68339896,59.396201899999994,24.6605965,2.299663,-1.2992078,-2.5211182,-0.022485403,-0.0058500394,-0.06750712,-0.015128343,-0.041402854,-0.17774458,-0.17352878,0.037437953,0.037413422,0.009335578,-0.1319156,0.054064877,-0.15545951,-0.15324815,-0.01406361,28.05643,0.12003112,0.18862441,0.18587416,0.11263024,0.08276338,inf,inf,inf,inf,1,1,1,1,2,2,2,2,2,0,1,1,0,0,0
566346632,566345325,68339896,59.396201899999994,24.6605965,2.299443,-1.2992097,-2.5224652,-0.022485403,-0.0058500394,-0.06750712,-0.014454624,-0.041990846,-0.17700581,-0.1724384,0.037437953,0.037413422,0.009335578,-0.016488306,0.062463656,0.09166554,-0.15327364,-0.01406361,28.05643,0.11971259,0.18938531,0.18645854,0.113071874,0.082972124,inf,inf,inf,inf,1,1,1,1,2,2,2,2,2,0,1,1,0,0,0
566357166,566355344,68339896,59.396201899999994,24.6605965,2.2991323,-1.2990472,-2.5233562,-0.022485403,-0.0058500394,-0.06750712,-0.015360147,-0.04151539,-0.1769499,-0.17155889,0.037437953,0.037413422,0.009335578,0.03583785,0.01347958,-0.091842555,-0.15331993,-0.01406361,28.05643,0.13047123,0.18099765,0.18014966,0.1080643,0.08064711,inf,inf,inf,inf,1,1,1,1,2,2,2,2,2,0,1,1,0,0,0
566366464,566365364,68339896,59.396201899999994,24.6605965,2.2988334,-1.2989082,-2.5242712,-0.022485403,-0.0058500394,-0.06750712,-0.014249399,-0.042595726,-0.17680731,-0.17063026,0.037437953,0.037413422,0.009335578,0.02698729,-0.19572383,-0.054709367,-0.15338725,-0.01406361,28.05643,0.12978768,0.18170467,0.18070796,0.10849844,0.08085505,inf,inf,inf,inf,1,1,1,1,2,2,2,2,2,0,1,1,0,0,0
566377141,566375382,68339896,59.396201899999994,24.6605965,2.298541,-1.2987872,-2.5252142,-0.022485403,-0.0058500394,-0.06750712,-0.013958545,-0.041844945,-0.1773674,-0.17044064,0.037437953,0.037413422,0.009335578,0.16391423,-0.13635102,-0.08923769,-0.15339234,-0.01406361,28.05643,0.12913013,0.1824168,0.18126883,0.10893438,0.08106308,inf,inf,inf,inf,1,1,1,1,2,2,2,2,2,0,1,1,0,0,0
566386557,566385402,68339896,59.396201899999994,24.6605965,2.2982485,-1.298685,-2.5261798,-0.022485403,-0.0058500394,-0.06750712,-0.015337481,-0.041564945,-0.17640904,-0.16876769,0.037437953,0.037413422,0.009335578,-0.03340742,-0.011965683,0.07335957,-0.15332447,-0.01406361,28.05643,0.1284852,0.18313405,0.18183227,0.1093745,0.08127114,inf,inf,inf,inf,1,1,1,1,2,2,2,2,2,0,1,1,0,0,0
566396518,566395421,68339896,59.396201899999994,24.6605965,2.2979603,-1.2986069,-2.527164,-0.022485403,-0.0058500394,-0.06750712,-0.014145856,-0.04187997,-0.17732365,-0.1690016,0.037437953,0.037413422,0.009335578,0.24955976,0.06509601,-0.27167073,-0.15330109,-0.01406361,28.05643,0.12785482,0.1838565,0.18239829,0.10980782,0.08147919,inf,inf,inf,inf,1,1,1,1,2,2,2,2,2,0,1,1,0,0,0
566406545,566405442,68339896,59.396201899999994,24.6605965,2.2976792,-1.2985462,-2.528181,-0.022485403,-0.0058500394,-0.06750712,-0.016023992,-0.041746113,-0.17745014,-0.16848008,0.037437953,0.037413422,0.009335578,-0.29319176,0.01207937,0.014848793,-0.15330845,-0.01406361,28.05643,0.12725234,0.1845841,0.18296687,0.110249676,0.08168745,inf,inf,inf,inf,1,1,1,1,2,2,2,2,2,0,1,1,0,0,0
566416527,566415459,68339896,59.396201899999994,24.6605965,2.2973914,-1.2985051,-2.5292084,-0.022485403,-0.0058500394,-0.06750712,-0.015090787,-0.04182545,-0.17668387,-0.16709737,0.037437953,0.037413422,0.009335578,0.23894724,0.025540017,-0.15711397,-0.15334606,-0.01406361,28.05643,0.12664986,0.18531689,0.18353802,0.110687934,0.08189576,inf,inf,inf,inf,1,1,1,1,2,2,2,2,2,0,1,1,0,0,0
566426525,566425479,68339896,59.396201899999994,24.6605965,2.2971172,-1.298485,-2.5303807,-0.022485403,-0.0058500394,-0.06750712,-0.014494943,-0.042639267,-0.17578116,-0.1657441,0.037437953,0.037413422,0.009335578,0.14686438,-0.10559333,-0.14682889,-0.1534012,-0.01406361,28.05643,0.1229074,0.18605489,0.18385756,0.11112681,0.08204853,inf,inf,inf,inf,1,1,1,1,2,2,2,2,2,0,1,1,0,0,0
566436512,566435498,68339896,59.396201899999994,24.6605965,2.2968516,-1.2984757,-2.5315669,-0.022485403,-0.0058500394,-0.06750712,-0.015346186,-0.04210133,-0.1754627,-0.1649985,0.037437953,0.037413422,0.009335578,-0.2468408,-0.23089685,-0.09554628,-0.1533891,-0.01406361,28.05643,0.122443914,0.18679805,0.18443307,0.11156705,0.08225694,inf,inf,inf,inf,1,1,1,1,2,2,2,2,2,0,1,1,0,0,0
566446679,566445517,68339896,59.396201899999994,24.6605965,2.2965784,-1.2984866,-2.5327687,-0.022485403,-0.0058500394,-0.06750712,-0.014700806,-0.04202127,-0.17517792,-0.16430922,0.037437953,0.037413422,0.009335578,0.33739594,-0.066187695,0.10457186,-0.15335943,-0.01406361,28.05643,0.121994495,0.18754646,0.18501116,0.11200487,0.08246548,inf,inf,inf,inf,1,1,1,1,2,2,2,2,2,0,1,1,0,0,0
566456847,566455537,68339896,59.396201899999994,24.6605965,2.2963226,-1.298512,-2.5339825,-0.022485403,-0.0058500394,-0.06750712,-0.01438073,-0.041485336,-0.17497458,-0.16372317,0.037437953,0.037413422,0.009335578,-0.05729829,0.061480626,0.036068004,-0.15333955,-0.01406361,28.05643,0.12155509,0.18830006,0.18559183,0.11244626,0.08267394,inf,inf,inf,inf,1,1,1,1,2,2,2,2,2,0,1,1,0,0,0
566466694,566465556,68339896,59.396201899999994,24.6605965,2.2960749,-1.2985613,-2.5352182,-0.022485403,-0.0058500394,-0.06750712,-0.014514739,-0.04271477,-0.17625254,-0.16463952,0.037437953,0.037413422,0.009335578,-0.22589013,0.08379194,-0.101117864,-0.15335152,-0.01406361,28.05643,0.12113261,0.1890589,0.18617508,0.11288735,0.08288268,inf,inf,inf,inf,1,1,1,1,2,2,2,2,2,0,1,1,0,0,0
566476686,566475575,68339896,59.396201899999994,24.6605965,2.295813,-1.2986262,-2.5364718,-0.022485403,-0.0058500394,-0.06750712,-0.015664255,-0.041988704,-0.17588887,-0.16393454,0.037437953,0.037413422,0.009335578,0.1507241,0.12545726,0.06757013,-0.15338865,-0.01406361,28.05643,0.12072158,0.18982299,0.1867609,0.11333139,0.08309135,inf,inf,inf,inf,1,1,1,1,2,2,2,2,2,0,1,1,0,0,0
566487442,566485594,68339896,59.396201899999994,24.6605965,2.2956445,-1.2983837,-2.5374053,-0.022485403,-0.0058500394,-0.06750712,-0.014754009,-0.042460877,-0.17555085,-0.16292876,0.037437953,0.037413422,0.009335578,-0.047802657,-0.037238196,-0.10016758,-0.15341508,-0.01406361,28.05643,0.12815809,0.18136849,0.1804195,0.10828114,0.08075325,inf,inf,inf,inf,1,1,1,1,2,2,2,2,2,0,1,1,0,0,0
566496734,566495613,68339896,59.396201899999994,24.6605965,2.295481,-1.2981651,-2.5383623,-0.022485403,-0.0058500394,-0.06750712,-0.014521787,-0.04172577,-0.1749764,-0.16172045,0.037437953,0.037413422,0.009335578,-0.05476218,0.1394188,0.16069143,-0.15339498,-0.01406361,28.05643,0.12749076,0.1820782,0.1809791,0.108719975,0.08096131,inf,inf,inf,inf,1,1,1,1,2,2,2,2,2,0,1,1,0,0,0
566506672,566505634,68339896,59.396201899999994,24.6605965,2.2953072,-1.2979658,-2.5393384,-0.022485403,-0.0058500394,-0.06750712,-0.015729353,-0.04126642,-0.17507108,-0.16121398,0.037437953,0.037413422,0.009335578,0.109326206,0.20157322,-0.07879717,-0.15334073,-0.01406361,28.05643,0.12683272,0.18279305,0.18154128,0.10915622,0.08116917,inf,inf,inf,inf,1,1,1,1,2,2,2,2,2,0,1,1,0,0,0
566516776,566515657,68339896,59.396201899999994,24.6605965,2.2951481,-1.2977865,-2.5403364,-0.022485403,-0.0058500394,-0.06750712,-0.013993559,-0.04277493,-0.1746243,-0.16019763,0.037437953,0.037413422,0.009335578,-0.05109673,-0.28082255,0.0736131,-0.15331233,-0.01406361,28.05643,0.12619615,0.18351306,0.182106,0.10959067,0.08137734,inf,inf,inf,inf,1,1,1,1,2,2,2,2,2,0,1,1,0,0,0
566526655,566525671,68339896,59.396201899999994,24.6605965,2.294998,-1.2976321,-2.5413556,-0.022485403,-0.0058500394,-0.06750712,-0.012631743,-0.042508546,-0.17492701,-0.15996121,0.037437953,0.037413422,0.009335578,0.26049054,-0.21787885,0.010148525,-0.15334675,-0.01406361,28.05643,0.12558317,0.18423821,0.18267332,0.11002571,0.081585586,inf,inf,inf,inf,1,1,1,1,2,2,2,2,2,0,1,1,0,0,0
566536726,566535690,68339896,59.396201899999994,24.6605965,2.2948449,-1.2974999,-2.5424004,-0.022485403,-0.0058500394,-0.06750712,-0.015158418,-0.04175071,-0.17510508,-0.15962948,0.037437953,0.037413422,0.009335578,-0.18114004,0.032443292,0.056392472,-0.1533828,-0.01406361,28.05643,0.124997616,0.18496853,0.1832432,0.11046185,0.08179374,inf,inf,inf,inf,1,1,1,1,2,2,2,2,2,0,1,1,0,0,0
566546782,566545714,68339896,59.396201899999994,24.6605965,2.294691,-1.297385,-2.5434678,-0.022485403,-0.0058500394,-0.06750712,-0.01386924,-0.0416808,-0.17626134,-0.16030422,0.037437953,0.037413422,0.009335578,0.035282884,0.017552087,-0.29027888,-0.15341397,-0.01406361,28.05643,0.12443614,0.18570404,0.18381566,0.11089835,0.082002096,inf,inf,inf,inf,1,1,1,1,2,2,2,2,2,0,1,1,0,0,0
566557020,566555729,68339896,59.396201899999994,24.6605965,2.294545,-1.2972914,-2.5446715,-0.022485403,-0.0058500394,-0.06750712,-0.013369133,-0.041730724,-0.17616586,-0.15986852,0.037437953,0.037413422,0.009335578,0.085460134,0.099278115,-0.1129503,-0.15340224,-0.01406361,28.05643,0.12124634,0.18644471,0.18413533,0.11133796,0.082154684,inf,inf,inf,inf,1,1,1,1,2,2,2,2,2,0,1,1,0,0,0
566566803,566565748,68339896,59.396201899999994,24.6605965,2.2943928,-1.2972144,-2.5458953,-0.022485403,-0.0058500394,-0.06750712,-0.015343586,-0.04190564,-0.17722298,-0.16060671,0.037437953,0.037413422,0.009335578,-0.20028208,-0.075924985,-0.24515843,-0.15333687,-0.01406361,28.05643,0.120821,0.18719059,0.18471214,0.11178081,0.08236316,inf,inf,inf,inf,1,1,1,1,2,2,2,2,2,0,1,1,0,0,0
566577142,566575773,68339896,59.396201899999994,24.6605965,2.2942433,-1.2971593,-2.5471365,-0.022485403,-0.0058500394,-0.06750712,-0.013602765,-0.043044943,-0.17706497,-0.16015027,0.037437953,0.037413422,0.009335578,0.047292657,-0.28622326,-0.21696526,-0.1532971,-0.01406361,28.05643,0.120406866,0.1879417,0.18529151,0.112219386,0.08257155,inf,inf,inf,inf,1,1,1,1,2,2,2,2,2,0,1,1,0,0,0
566587076,566585786,68339896,59.396201899999994,24.6605965,2.2941055,-1.2971269,-2.5483992,-0.022485403,-0.0058500394,-0.06750712,-0.012292221,-0.04236513,-0.17732674,-0.16013336,0.037437953,0.037413422,0.009335578,0.19301969,0.009220154,0.06560122,-0.15332082,-0.01406361,28.05643,0.12001324,0.18869804,0.18587348,0.11265975,0.082780235,inf,inf,inf,inf,1,1,1,1,2,2,2,2,2,0,1,1,0,0,0
566597027,566595806,68339896,59.396201899999994,24.6605965,2.2939665,-1.2971152,-2.5496812,-0.022485403,-0.0058500394,-0.06750712,-0.014075769,-0.043376062,-0.17824927,-0.16079625,0.037437953,0.037413422,0.009335578,-0.09510053,-0.11663907,-0.091852225,-0.15334128,-0.01406361,28.05643,0.119638205,0.1894596,0.18645802,0.11309952,0.08298887,inf,inf,inf,inf,1,1,1,1,2,2,2,2,2,0,1,1,0,0,0
566607646,566605828,68339896,59.396201899999994,24.6605965,2.2936828,-1.2969164,-2.550457,-0.022485403,-0.0058500394,-0.06750712,-0.012762891,-0.043310475,-0.17803945,-0.15979137,0.037437953,0.037413422,0.009335578,-0.019906664,0.009726729,0.034514114,-0.15339185,-0.01406361,28.05643,0.13189769,0.18105984,0.1803878,0.1080873,0.080713645,inf,inf,inf,inf,1,1,1,1,2,2,2,2,2,0,1,1,0,0,0
566616931,566615846,68339896,59.396201899999994,24.6605965,2.2934048,-1.2967335,-2.5513864,-0.022485403,-0.0058500394,-0.06750712,-0.011996894,-0.04278344,-0.1806299,-0.16174646,0.037437953,0.037413422,0.009335578,0.30028704,-0.08934451,-0.32778808,-0.15342791,-0.01406361,28.05643,0.12837481,0.18176743,0.18070565,0.10852195,0.08087014,inf,inf,inf,inf,1,1,1,1,2,2,2,2,2,0,1,1,0,0,0
566626930,566625863,68339896,59.396201899999994,24.6605965,2.2931297,-1.2965653,-2.5523517,-0.022485403,-0.0058500394,-0.06750712,-0.014697866,-0.041758005,-0.1804131,-0.16092944,0.037437953,0.037413422,0.009335578,-0.31049007,-0.034855306,-0.14170709,-0.15337275,-0.01406361,28.05643,0.12773466,0.18248016,0.18126668,0.10895884,0.08107823,inf,inf,inf,inf,1,1,1,1,2,2,2,2,2,0,1,1,0,0,0
566637008,566635883,68339896,59.396201899999994,24.6605965,2.2928543,-1.2964168,-2.5533423,-0.022485403,-0.0058500394,-0.06750712,-0.013328562,-0.042473674,-0.1809217,-0.16087165,0.037437953,0.037413422,0.009335578,0.04171443,-0.23627956,-0.25209028,-0.15333639,-0.01406361,28.05643,0.1271131,0.18319802,0.18183027,0.10939506,0.08128608,inf,inf,inf,inf,1,1,1,1,2,2,2,2,2,0,1,1,0,0,0
566647002,566645902,68339896,59.396201899999994,24.6605965,2.292586,-1.2962921,-2.5543656,-0.022485403,-0.0058500394,-0.06750712,-0.012539856,-0.04253365,-0.18240027,-0.16181637,0.037437953,0.037413422,0.009335578,0.30611703,-0.18743195,-0.35444131,-0.15336113,-0.01406361,28.05643,0.12651181,0.18392104,0.18239643,0.10983699,0.08149433,inf,inf,inf,inf,1,1,1,1,2,2,2,2,2,0,1,1,0,0,0
566657141,566655922,68339896,59.396201899999994,24.6605965,2.2923265,-1.296188,-2.5554225,-0.022485403,-0.0058500394,-0.06750712,-0.013997783,-0.042200454,-0.18181364,-0.16072737,0.037437953,0.037413422,0.009335578,-0.21590038,-0.070408836,0.026787415,-0.1533587,-0.01406361,28.05643,0.1259358,0.18464926,0.18296516,0.1102734,0.0817026,inf,inf,inf,inf,1,1,1,1,2,2,2,2,2,0,1,1,0,0,0
566667005,566665940,68339896,59.396201899999994,24.6605965,2.292072,-1.2961034,-2.5564995,-0.022485403,-0.0058500394,-0.06750712,-0.012729538,-0.04239451,-0.18215418,-0.16059577,0.037437953,0.037413422,0.009335578,-0.028907005,-0.10561362,-0.042546984,-0.15338613,-0.01406361,28.05643,0.12537313,0.18538263,0.18353646,0.110713825,0.08191074,inf,inf,inf,inf,1,1,1,1,2,2,2,2,2,0,1,1,0,0,0
566677347,566675959,68339896,59.396201899999994,24.6605965,2.291823,-1.296042,-2.5576081,-0.022485403,-0.0058500394,-0.06750712,-0.012867679,-0.042340953,-0.18311112,-0.1611097,0.037437953,0.037413422,0.009335578,0.010682494,0.07067349,0.003497424,-0.15337569,-0.01406361,28.05643,0.12483382,0.18612121,0.18411034,0.111152746,0.082119256,inf,inf,inf,inf,1,1,1,1,2,2,2,2,2,0,1,1,0,0,0
566687087,566685979,68339896,59.396201899999994,24.6605965,2.2915747,-1.2959937,-2.558896,-0.022485403,-0.0058500394,-0.06750712,-0.013808317,-0.04221387,-0.18491665,-0.16265193,0.037437953,0.037413422,0.009335578,-0.16824724,-0.11194559,-0.23028952,-0.15336129,-0.01406361,28.05643,0.120799065,0.18686499,0.18443021,0.11159233,0.08227159,inf,inf,inf,inf,1,1,1,1,2,2,2,2,2,0,1,1,0,0,0
566697078,566695998,68339896,59.396201899999994,24.6605965,2.2913313,-1.2959651,-2.560214,-0.022485403,-0.0058500394,-0.06750712,-0.01327166,-0.042556953,-0.18566562,-0.16315798,0.037437953,0.037413422,0.009335578,-0.14462729,-0.10040036,-0.033157706,-0.15333626,-0.01406361,28.05643,0.120444775,0.187614,0.18500844,0.11203538,0.08247999,inf,inf,inf,inf,1,1,1,1,2,2,2,2,2,0,1,1,0,0,0
566707045,566706017,68339896,59.396201899999994,24.6605965,2.2910879,-1.2959552,-2.5615559,-0.022485403,-0.0058500394,-0.06750712,-0.01292783,-0.04297783,-0.1866227,-0.16389175,0.037437953,0.037413422,0.009335578,0.20380034,-0.21014273,-0.16883945,-0.15334414,-0.01406361,28.05643,0.120105505,0.18836822,0.18558925,0.11247584,0.082688645,inf,inf,inf,inf,1,1,1,1,2,2,2,2,2,0,1,1,0,0,0
566717719,566716037,68339896,59.396201899999994,24.6605965,2.2908554,-1.2959647,-2.5629253,-0.022485403,-0.0058500394,-0.06750712,-0.013754071,-0.042527564,-0.18796144,-0.16502611,0.037437953,0.037413422,0.009335578,-0.31371894,-0.019017605,-0.12888385,-0.15339397,-0.01406361,28.05643,0.11977744,0.18912767,0.18617265,0.11292622,0.08289734,inf,inf,inf,inf,1,1,1,1,2,2,2,2,2,0,1,1,0,0,0
566727361,566726056,68339896,59.396201899999994,24.6605965,2.2906227,-1.2959925,-2.5643153,-0.022485403,-0.0058500394,-0.06750712,-0.012426568,-0.043381296,-0.18810391,-0.16498238,0.037437953,0.037413422,0.009335578,0.11094037,-0.16707571,-0.012550382,-0.15340526,-0.01406361,28.05643,0.119452715,0.18989243,0.18675861,0.11336747,0.08310582,inf,inf,inf,inf,1,1,1,1,2,2,2,2,2,0,1,1,0,0,0
566737818,566736075,68339896,59.396201899999994,24.6605965,2.2904723,-1.295968,-2.565341,-0.022485403,-0.0058500394,-0.06750712,-0.01268243,-0.043079443,-0.1891431,-0.1654447,0.037437953,0.037413422,0.009335578,0.10179344,0.0074035516,0.08091712,-0.15338187,-0.01406361,28.05643,0.12847757,0.18142629,0.18065722,0.108314656,0.08081825,inf,inf,inf,inf,1,1,1,1,2,2,2,2,2,0,1,1,0,0,0
566747248,566746094,68339896,59.396201899999994,24.6605965,2.2903295,-1.2959589,-2.5665135,-0.022485403,-0.0058500394,-0.06750712,-0.0128572825,-0.043015063,-0.19093244,-0.16680574,0.037437953,0.037413422,0.009335578,-0.21428072,-0.047879655,-0.21761951,-0.15335558,-0.01406361,28.05643,0.12520027,0.18213658,0.18097527,0.108755864,0.08097433,inf,inf,inf,inf,1,1,1,1,2,2,2,2,2,0,1,1,0,0,0
566757315,566756114,68339896,59.396201899999994,24.6605965,2.2901857,-1.295969,-2.5677137,-0.022485403,-0.0058500394,-0.06750712,-0.012553,-0.042926915,-0.19079769,-0.16627102,0.037437953,0.037413422,0.009335578,-0.029247377,0.06398457,-0.12835412,-0.15333,-0.01406361,28.05643,0.12469387,0.18285201,0.18153755,0.10918984,0.08118227,inf,inf,inf,inf,1,1,1,1,2,2,2,2,2,0,1,1,0,0,0
566767186,566766132,68339896,59.396201899999994,24.6605965,2.290042,-1.2959938,-2.5689478,-0.022485403,-0.0058500394,-0.06750712,-0.01272427,-0.043222047,-0.19285567,-0.1679563,0.037437953,0.037413422,0.009335578,-0.015826793,-0.10819562,-0.20633033,-0.15335979,-0.01406361,28.05643,0.12422013,0.1835726,0.18210243,0.109626785,0.081390485,inf,inf,inf,inf,1,1,1,1,2,2,2,2,2,0,1,1,0,0,0
566777567,566776152,68339896,59.396201899999994,24.6605965,2.2899015,-1.2960404,-2.5702174,-0.022485403,-0.0058500394,-0.06750712,-0.0123253865,-0.043623555,-0.19426167,-0.16901585,0.037437953,0.037413422,0.009335578,0.010634944,-0.06156606,-0.25526705,-0.1533961,-0.01406361,28.05643,0.123772144,0.18429837,0.18266986,0.11006731,0.08159868,inf,inf,inf,inf,1,1,1,1,2,2,2,2,2,0,1,1,0,0,0
566787243,566786173,68339896,59.396201899999994,24.6605965,2.2897682,-1.296101,-2.571516,-0.022485403,-0.0058500394,-0.06750712,-0.011664259,-0.04347931,-0.19483654,-0.16926955,0.037437953,0.037413422,0.009335578,0.022228759,-0.13368718,-0.22523706,-0.15340292,-0.01406361,28.05643,0.1233356,0.1850293,0.18323986,0.110510714,0.08180685,inf,inf,inf,inf,1,1,1,1,2,2,2,2,2,0,1,1,0,0,0
566797328,566796190,68339896,59.396201899999994,24.6605965,2.2896347,-1.2961833,-2.57284,-0.022485403,-0.0058500394,-0.06750712,-0.011810966,-0.04442012,-0.19502394,-0.16916007,0.037437953,0.037413422,0.009335578,0.11409274,-0.15636839,-0.112166554,-0.15339424,-0.01406361,28.05643,0.1229074,0.18576545,0.18381245,0.11095225,0.08201524,inf,inf,inf,inf,1,1,1,1,2,2,2,2,2,0,1,1,0,0,0
566807192,566806209,68339896,59.396201899999994,24.6605965,2.2895043,-1.2962832,-2.5741909,-0.022485403,-0.0058500394,-0.06750712,-0.012224696,-0.043664757,-0.19611661,-0.16997927,0.037437953,0.037413422,0.009335578,-0.14043671,0.10857776,-0.119366504,-0.15338059,-0.01406361,28.05643,0.122492075,0.1865068,0.18438761,0.111394785,0.082223676,inf,inf,inf,inf,1,1,1,1,2,2,2,2,2,0,1,1,0,0,0
566817409,566816228,68339896,59.396201899999994,24.6605965,2.289378,-1.2963926,-2.5756874,-0.022485403,-0.0058500394,-0.06750712,-0.010501496,-0.043204397,-0.1967457,-0.17048475,0.037437953,0.037413422,0.009335578,0.21325037,0.10363082,-0.2517582,-0.1533411,-0.01406361,28.05643,0.11912227,0.18725339,0.1847076,0.1118379,0.08237554,inf,inf,inf,inf,1,1,1,1,2,2,2,2,2,0,1,1,0,0,0
566827363,566826248,68339896,59.396201899999994,24.6605965,2.2892559,-1.2965238,-2.577211,-0.022485403,-0.0058500394,-0.06750712,-0.011321286,-0.04474947,-0.19771323,-0.17134473,0.037437953,0.037413422,0.009335578,0.04481608,-0.023781322,-0.17297879,-0.1533848,-0.01406361,28.05643,0.11884594,0.1880052,0.18528712,0.11227843,0.08258423,inf,inf,inf,inf,1,1,1,1,2,2,2,2,2,0,1,1,0,0,0
566837341,566836267,68339896,59.396201899999994,24.6605965,2.2891386,-1.2966733,-2.5787656,-0.022485403,-0.0058500394,-0.06750712,-0.011481327,-0.044574928,-0.20107737,-0.17461671,0.037437953,0.037413422,0.009335578,-0.2425658,0.06817069,-0.5008199,-0.15342577,-0.01406361,28.05643,0.118591785,0.18876223,0.1858692,0.112722576,0.0827928,inf,inf,inf,inf,1,1,1,1,2,2,2,2,2,0,1,1,0,0,0
566847430,566846286,68339896,59.396201899999994,24.6605965,2.2890196,-1.2968333,-2.580358,-0.022485403,-0.0058500394,-0.06750712,-0.0101332,-0.045563225,-0.20213081,-0.1755928,0.037437953,0.037413422,0.009335578,0.23955749,-0.31674364,-0.1346715,-0.15341197,-0.01406361,28.05643,0.11835718,0.18952453,0.18645386,0.113170184,0.08300145,inf,inf,inf,inf,1,1,1,1,2,2,2,2,2,0,1,1,0,0,0
566858209,566856306,68339896,59.396201899999994,24.6605965,2.2888253,-1.2967166,-2.5813382,-0.022485403,-0.0058500394,-0.06750712,-0.010854016,-0.04494719,-0.20384823,-0.17657942,0.037437953,0.037413422,0.009335578,0.0227769,0.08080174,-0.38543707,-0.15341315,-0.01406361,28.05643,0.13335252,0.18111318,0.18038368,0.10814745,0.080725536,inf,inf,inf,inf,1,1,1,1,2,2,2,2,2,0,1,1,0,0,0
566867484,566866325,68339896,59.396201899999994,24.6605965,2.2886336,-1.2966157,-2.5823681,-0.022485403,-0.0058500394,-0.06750712,-0.011818979,-0.045098715,-0.20498271,-0.17702581,0.037437953,0.037413422,0.009335578,-0.30869216,-0.11740017,-0.18368067,-0.15336116,-0.01406361,28.05643,0.13261199,0.18182142,0.180943,0.108589716,0.08093347,inf,inf,inf,inf,1,1,1,1,2,2,2,2,2,0,1,1,0,0,0
566877469,566876345,68339896,59.396201899999994,24.6605965,2.288443,-1.2965314,-2.58357,-0.022485403,-0.0058500394,-0.06750712,-0.009501006,-0.044041406,-0.20640457,-0.17793056,0.037437953,0.037413422,0.009335578,0.36771914,0.015153926,-0.13702202,-0.15331358,-0.01406361,28.05643,0.12887454,0.18253484,0.18126129,0.10902985,0.08108923,inf,inf,inf,inf,1,1,1,1,2,2,2,2,2,0,1,1,0,0,0
566887341,566886363,68339896,59.396201899999994,24.6605965,2.2882645,-1.2964739,-2.5848014,-0.022485403,-0.0058500394,-0.06750712,-0.011161191,-0.044707444,-0.20649663,-0.17753944,0.037437953,0.037413422,0.009335578,-0.21982674,0.17639025,-0.16800946,-0.1533544,-0.01406361,28.05643,0.12828875,0.1832534,0.181825,0.10946895,0.08129738,inf,inf,inf,inf,1,1,1,1,2,2,2,2,2,0,1,1,0,0,0
566897418,566896382,68339896,59.396201899999994,24.6605965,2.288088,-1.2964349,-2.5860727,-0.022485403,-0.0058500394,-0.06750712,-0.010599934,-0.045613524,-0.20904823,-0.17964053,0.037437953,0.037413422,0.009335578,-0.17821851,-0.18427548,-0.39249966,-0.15341973,-0.01406361,28.05643,0.12773538,0.18397716,0.18239127,0.10990599,0.08150558,inf,inf,inf,inf,1,1,1,1,2,2,2,2,2,0,1,1,0,0,0
566907445,566906402,68339896,59.396201899999994,24.6605965,2.287912,-1.29642,-2.5873885,-0.022485403,-0.0058500394,-0.06750712,-0.009732863,-0.046142288,-0.21043144,-0.18060468,0.037437953,0.037413422,0.009335578,0.2472492,-0.2193323,-0.2491383,-0.15343201,-0.01406361,28.05643,0.1272192,0.18470606,0.18296012,0.110345356,0.08171373,inf,inf,inf,inf,1,1,1,1,2,2,2,2,2,0,1,1,0,0,0
566917537,566916421,68339896,59.396201899999994,24.6605965,2.2877486,-1.296419,-2.588742,-0.022485403,-0.0058500394,-0.06750712,-0.0099644065,-0.04555045,-0.21088426,-0.18066871,0.037437953,0.037413422,0.009335578,-0.14194438,-0.2451661,0.0421896,-0.15342118,-0.01406361,28.05643,0.12672973,0.18544017,0.18353154,0.110786185,0.08192216,inf,inf,inf,inf,1,1,1,1,2,2,2,2,2,0,1,1,0,0,0
566927636,566926440,68339896,59.396201899999994,24.6605965,2.2875848,-1.2964386,-2.590129,-0.022485403,-0.0058500394,-0.06750712,-0.010492335,-0.045579024,-0.21294563,-0.18237042,0.037437953,0.037413422,0.009335578,-0.21343276,-0.06583458,-0.20370388,-0.15336478,-0.01406361,28.05643,0.12625933,0.18617947,0.18410553,0.111229114,0.082130514,inf,inf,inf,inf,1,1,1,1,2,2,2,2,2,0,1,1,0,0,0
566937655,566936459,68339896,59.396201899999994,24.6605965,2.2874203,-1.2964816,-2.5915608,-0.022485403,-0.0058500394,-0.06750712,-0.009090879,-0.046265006,-0.21480477,-0.18389793,0.037437953,0.037413422,0.009335578,0.29514438,-0.020480262,-0.05267124,-0.15332144,-0.01406361,28.05643,0.12580967,0.186924,0.1846821,0.11167812,0.082338914,inf,inf,inf,inf,1,1,1,1,2,2,2,2,2,0,1,1,0,0,0
566947604,566946478,68339896,59.396201899999994,24.6605965,2.287264,-1.2965403,-2.59314,-0.022485403,-0.0058500394,-0.06750712,-0.010074518,-0.04576753,-0.2168754,-0.18577845,0.037437953,0.037413422,0.009335578,-0.06444709,0.028721403,-0.36188444,-0.15332925,-0.01406361,28.05643,0.12270832,0.18767379,0.18500225,0.112121604,0.0824907,inf,inf,inf,inf,1,1,1,1,2,2,2,2,2,0,1,1,0,0,0
566957601,566956497,68339896,59.396201899999994,24.6605965,2.287113,-1.2966199,-2.5947433,-0.022485403,-0.0058500394,-0.06750712,-0.009150358,-0.04646343,-0.21648301,-0.18521683,0.037437953,0.037413422,0.009335578,0.009874433,0.049961567,-0.1420187,-0.15339626,-0.01406361,28.05643,0.122379065,0.1884288,0.18558316,0.11256871,0.0826992,inf,inf,inf,inf,1,1,1,1,2,2,2,2,2,0,1,1,0,0,0
566967582,566966517,68339896,59.396201899999994,24.6605965,2.2869666,-1.2967167,-2.5963762,-0.022485403,-0.0058500394,-0.06750712,-0.007021326,-0.04650317,-0.21887736,-0.18746206,0.037437953,0.037413422,0.009335578,0.6320455,0.009569941,-0.3241951,-0.15343204,-0.01406361,28.05643,0.122060776,0.18918909,0.18616664,0.11301337,0.082907796,inf,inf,inf,inf,1,1,1,1,2,2,2,2,2,0,1,1,0,0,0
566978306,566976539,68339896,59.396201899999994,24.6605965,2.2867508,-1.2964867,-2.5974503,-0.022485403,-0.0058500394,-0.06750712,-0.011483461,-0.046077374,-0.2195281,-0.18736452,0.037437953,0.037413422,0.009335578,-0.5603933,0.19534937,-0.15896021,-0.15343145,-0.01406361,28.05643,0.1358645,0.18082623,0.18012562,0.1080217,0.08064271,inf,inf,inf,inf,1,1,1,1,2,2,2,2,2,0,1,1,0,0,0
566987534,566986556,68339896,59.396201899999994,24.6605965,2.286542,-1.2962799,-2.5985649,-0.022485403,-0.0058500394,-0.06750712,-0.0059350883,-0.046685822,-0.22059602,-0.18772966,0.037437953,0.037413422,0.009335578,0.57695234,0.017670583,-0.3441514,-0.1533897,-0.01406361,28.05643,0.13507438,0.1815328,0.18068388,0.10845809,0.080850534,inf,inf,inf,inf,1,1,1,1,2,2,2,2,2,0,1,1,0,0,0
566997882,566996574,68339896,59.396201899999994,24.6605965,2.286327,-1.2960935,-2.5997422,-0.022485403,-0.0058500394,-0.06750712,-0.013523392,-0.045054216,-0.22370777,-0.19018242,0.037437953,0.037413422,0.009335578,-0.67086303,0.22274111,-0.24216793,-0.15333961,-0.01406361,28.05643,0.1343267,0.1822445,0.18124473,0.10890275,0.081058614,inf,inf,inf,inf,1,1,1,1,2,2,2,2,2,0,1,1,0,0,0
567007838,567006593,68339896,59.396201899999994,24.6605965,2.2861075,-1.2959229,-2.6010861,-0.022485403,-0.0058500394,-0.06750712,-0.00861225,-0.044449743,-0.22334443,-0.18932906,0.037437953,0.037413422,0.009335578,0.3452196,0.29822683,0.08864808,-0.1533203,-0.01406361,28.05643,0.13064885,0.18296137,0.18156335,0.10934338,0.08121412,inf,inf,inf,inf,1,1,1,1,2,2,2,2,2,0,1,1,0,0,0
567018026,567016613,68339896,59.396201899999994,24.6605965,2.2858758,-1.2957828,-2.6024704,-0.022485403,-0.0058500394,-0.06750712,-0.014081602,-0.04551748,-0.22754966,-0.19307931,0.037437953,0.037413422,0.009335578,-0.06982661,0.2955677,-0.80436414,-0.15339522,-0.01406361,28.05643,0.13006091,0.18368344,0.18212856,0.10978176,0.08142225,inf,inf,inf,inf,1,1,1,1,2,2,2,2,2,0,1,1,0,0,0
567027815,567026637,68339896,59.396201899999994,24.6605965,2.2856317,-1.2956665,-2.6038947,-0.022485403,-0.0058500394,-0.06750712,-0.016495846,-0.044610288,-0.224944,-0.1900524,0.037437953,0.037413422,0.009335578,-0.79143065,0.71484464,0.07274696,-0.15352544,-0.01406361,28.05643,0.12949753,0.18441069,0.18269636,0.11022505,0.08163044,inf,inf,inf,inf,1,1,1,1,2,2,2,2,2,0,1,1,0,0,0
567037724,567036651,68339896,59.396201899999994,24.6605965,2.2853768,-1.2955458,-2.6053395,-0.022485403,-0.0058500394,-0.06750712,-0.011376219,-0.04387516,-0.2276228,-0.19234243,0.037437953,0.037413422,0.009335578,0.9246442,0.13079502,-0.32338905,-0.15344983,-0.01406361,28.05643,0.128932,0.18514314,0.18326671,0.110669605,0.08183887,inf,inf,inf,inf,1,1,1,1,2,2,2,2,2,0,1,1,0,0,0
567047914,567046670,68339896,59.396201899999994,24.6605965,2.285152,-1.2954377,-2.6068532,-0.022485403,-0.0058500394,-0.06750712,-0.015316286,-0.04289056,-0.23134124,-0.1957033,0.037437953,0.037413422,0.009335578,-0.7283585,0.1621283,-0.15175399,-0.15342297,-0.01406361,28.05643,0.12841105,0.1858808,0.18383965,0.11111536,0.082047135,inf,inf,inf,inf,1,1,1,1,2,2,2,2,2,0,1,1,0,0,0
567057712,567056689,68339896,59.396201899999994,24.6605965,2.2849233,-1.2953815,-2.608389,-0.022485403,-0.0058500394,-0.06750712,-0.0112814605,-0.047517758,-0.23092039,-0.1949549,0.037437953,0.037413422,0.009335578,0.42268544,0.048384786,-0.44737422,-0.15351783,-0.01406361,28.05643,0.1278987,0.1866237,0.18441516,0.1115536,0.082255654,inf,inf,inf,inf,1,1,1,1,2,2,2,2,2,0,1,1,0,0,0
567067832,567066709,68339896,59.396201899999994,24.6605965,2.284716,-1.2953423,-2.6099544,-0.022485403,-0.0058500394,-0.06750712,-0.011466067,-0.049133006,-0.23163776,-0.1953736,0.037437953,0.037413422,0.009335578,-0.022060353,-0.88977873,-0.26746732,-0.15345971,-0.01406361,28.05643,0.1274023,0.18737182,0.18499325,0.11200114,0.08246434,inf,inf,inf,inf,1,1,1,1,2,2,2,2,2,0,1,1,0,0,0
567078673,567076729,68339896,59.396201899999994,24.6605965,2.2845147,-1.2953355,-2.6116636,-0.022485403,-0.0058500394,-0.06750712,-0.00950051,-0.04836016,-0.2355947,-0.19917077,0.037437953,0.037413422,0.009335578,0.51718545,-0.3771925,-1.0685892,-0.15361886,-0.01406361,28.05643,0.12433839,0.18812521,0.18531363,0.112443425,0.08261526,inf,inf,inf,inf,1,1,1,1,2,2,2,2,2,0,1,1,0,0,0
567087717,567086747,68339896,59.396201899999994,24.6605965,2.2843099,-1.2953274,-2.6134021,-0.022485403,-0.0058500394,-0.06750712,-0.014397112,-0.043717273,-0.23181377,-0.19525188,0.037437953,0.037413422,0.009335578,-0.4321947,0.3473104,-0.055336945,-0.15367232,-0.01406361,28.05643,0.12397385,0.18888383,0.18589607,0.1128904,0.082824394,inf,inf,inf,inf,1,1,1,1,2,2,2,2,2,0,1,1,0,0,0
567097927,567096767,68339896,59.396201899999994,24.6605965,2.2841098,-1.2953565,-2.6151803,-0.022485403,-0.0058500394,-0.06750712,-0.011810662,-0.047209166,-0.23527832,-0.19859944,0.037437953,0.037413422,0.009335578,-0.26365167,0.61217463,0.1339197,-0.15370952,-0.01406361,28.05643,0.123625755,0.18964772,0.18648107,0.113338836,0.08303244,inf,inf,inf,inf,1,1,1,1,2,2,2,2,2,0,1,1,0,0,0
567108733,567106786,68339896,59.396201899999994,24.6605965,2.2839153,-1.2952448,-2.6163633,-0.022485403,-0.0058500394,-0.06750712,-0.009876441,-0.042684954,-0.23834214,-0.20088811,0.037437953,0.037413422,0.009335578,-0.9958203,1.1715965,0.20560737,-0.15364845,-0.01406361,28.05643,0.13877678,0.18121353,0.1804074,0.10829391,0.08075425,inf,inf,inf,inf,1,1,1,1,2,2,2,2,2,0,1,1,0,0,0
567118239,567116805,68339896,59.396201899999994,24.6605965,2.2836823,-1.2951463,-2.617581,-0.022485403,-0.0058500394,-0.06750712,-0.012129562,-0.045522943,-0.23185375,-0.19367339,0.037437953,0.037413422,0.009335578,0.3262803,0.3587164,1.667389,-0.15363206,-0.01406361,28.05643,0.13791227,0.18192314,0.18096705,0.10874386,0.08096187,inf,inf,inf,inf,1,1,1,1,2,2,2,2,2,0,1,1,0,0,0
567127946,567126824,68339896,59.396201899999994,24.6605965,2.283429,-1.2950586,-2.6187942,-0.022485403,-0.0058500394,-0.06750712,-0.016198454,-0.044417016,-0.23863363,-0.1997739,0.037437953,0.037413422,0.009335578,0.011902526,0.0048977733,-1.7359648,-0.15360044,-0.01406361,28.05643,0.1370337,0.18263794,0.18152925,0.10916826,0.081169635,inf,inf,inf,inf,1,1,1,1,2,2,2,2,2,0,1,1,0,0,0
567137962,567136843,68339896,59.396201899999994,24.6605965,2.283222,-1.2950038,-2.6202354,-0.022485403,-0.0058500394,-0.06750712,-0.0058526727,-0.048129473,-0.24192986,-0.20254375,0.037437953,0.037413422,0.009335578,0.80801344,-0.49066943,0.67846143,-0.15360536,-0.01406361,28.05643,0.1337738,0.18335786,0.18184806,0.109614894,0.08132518,inf,inf,inf,inf,1,1,1,1,2,2,2,2,2,0,1,1,0,0,0
567148202,567146862,68339896,59.396201899999994,24.6605965,2.2830155,-1.2949781,-2.621719,-0.022485403,-0.0058500394,-0.06750712,-0.01598012,-0.04334601,-0.24700746,-0.20713381,0.037437953,0.037413422,0.009335578,-0.69217867,0.8083286,-1.4381521,-0.15368408,-0.01406361,28.05643,0.13311648,0.18408298,0.18241465,0.110065326,0.08153306,inf,inf,inf,inf,1,1,1,1,2,2,2,2,2,0,1,1,0,0,0
567157910,567156881,68339896,59.396201899999994,24.6605965,2.2828133,-1.2949481,-2.623262,-0.022485403,-0.0058500394,-0.06750712,-0.012330504,-0.04380242,-0.24724989,-0.20692606,0.037437953,0.037413422,0.009335578,-1.2751565,0.47102752,0.4810411,-0.15387541,-0.01406361,28.05643,0.13249898,0.18481335,0.1829838,0.11050043,0.08174191,inf,inf,inf,inf,1,1,1,1,2,2,2,2,2,0,1,1,0,0,0
567167928,567166901,68339896,59.396201899999994,24.6605965,2.282549,-1.294952,-2.6248577,-0.022485403,-0.0058500394,-0.06750712,-0.013436702,-0.04629462,-0.2513275,-0.21058947,0.037437953,0.037413422,0.009335578,1.670042,0.27702278,-0.5963643,-0.1539656,-0.01406361,28.05643,0.13193321,0.18554889,0.18355554,0.110939816,0.081950344,inf,inf,inf,inf,1,1,1,1,2,2,2,2,2,0,1,1,0,0,0
567178286,567176920,68339896,59.396201899999994,24.6605965,2.2823403,-1.2949952,-2.6265352,-0.022485403,-0.0058500394,-0.06750712,-0.01913019,-0.044014424,-0.2568861,-0.21576837,0.037437953,0.037413422,0.009335578,-2.1885366,1.879193,-1.0738934,-0.15428244,-0.01406361,28.05643,0.13141704,0.18628961,0.18412985,0.11139678,0.08215896,inf,inf,inf,inf,1,1,1,1,2,2,2,2,2,0,1,1,0,0,0
567188098,567186939,68339896,59.396201899999994,24.6605965,2.2820857,-1.295063,-2.6282704,-0.022485403,-0.0058500394,-0.06750712,-0.009161461,-0.05591873,-0.25760725,-0.21614309,0.037437953,0.037413422,0.009335578,1.5790453,-1.1247381,0.8599357,-0.1542496,-0.01406361,28.05643,0.13095212,0.18703566,0.18470673,0.1118197,0.08236691,inf,inf,inf,inf,1,1,1,1,2,2,2,2,2,0,1,1,0,0,0
567198256,567196958,68339896,59.396201899999994,24.6605965,2.2818735,-1.2951533,-2.6300623,-0.022485403,-0.0058500394,-0.06750712,-0.016424181,-0.056266572,-0.262428,-0.22064938,0.037437953,0.037413422,0.009335578,-0.20479198,-2.6050265,-1.2824483,-0.15442763,-0.01406361,28.05643,0.13274407,0.18778683,0.1852862,0.112275176,0.08257586,inf,inf,inf,inf,1,1,1,1,2,2,2,2,2,0,1,1,0,0,0
567208713,567206977,68339896,59.396201899999994,24.6605965,2.2816508,-1.2952789,-2.632013,-0.022485403,-0.0058500394,-0.06750712,-0.009822415,-0.042613678,-0.27043235,-0.22847518,0.037437953,0.037413422,0.009335578,1.1555309,2.2878492,-1.9487213,-0.15470934,-0.01406361,28.05643,0.13469481,0.18854332,0.18560669,0.11272318,0.08272684,inf,inf,inf,inf,1,1,1,1,2,2,2,2,2,0,1,1,0,0,0
567218211,567216996,68339896,59.396201899999994,24.6605965,2.2814639,-1.2954217,-2.6340492,-0.022485403,-0.0058500394,-0.06750712,-0.0118171945,-0.051655408,-0.27135542,-0.2292447,0.037437953,0.037413422,0.009335578,-0.07809006,0.77201134,-0.08619587,-0.15476039,-0.01406361,28.05643,0.13673091,0.18930508,0.18619049,0.113150686,0.0829356,inf,inf,inf,inf,1,1,1,1,2,2,2,2,2,0,1,1,0,0,0
567228194,567227030,68339896,59.396201899999994,24.6605965,2.281291,-1.29555,-2.6361563,-0.022485403,-0.0058500394,-0.06750712,-0.011861362,-0.055689126,-0.27214342,-0.22990304,0.037437953,0.037413422,0.009335578,-0.8677802,-2.4565363,1.6274284,-0.15497139,-0.01406361,28.05643,0.13883805,0.19007204,0.18677686,0.11361194,0.08314406,inf,inf,inf,inf,1,1,1,1,2,2,2,2,2,0,1,1,0,0,0
567238104,567237035,68339896,59.396201899999994,24.6605965,2.2810931,-1.2956848,-2.6382859,-0.022485403,-0.0058500394,-0.06750712,-0.010414746,-0.048135053,-0.28723663,-0.24488954,0.037437953,0.037413422,0.009335578,1.0449754,-0.32704258,-4.2433825,-0.15521498,-0.01406361,28.05643,0.14096761,0.19084434,0.18736582,0.114067,0.083353944,inf,inf,inf,inf,1,1,1,1,2,2,2,2,2,0,1,1,0,0,0
567248473,567247055,68339896,59.396201899999994,24.6605965,2.280947,-1.2958214,-2.640565,-0.022485403,-0.0058500394,-0.06750712,-0.009160653,-0.041599546,-0.27973193,-0.23730016,0.037437953,0.037413422,0.009335578,-1.0453339,1.9378592,3.01671,-0.15540172,-0.01406361,28.05643,0.14324665,0.19162197,0.18795735,0.11452947,0.08356195,inf,inf,inf,inf,1,1,1,1,2,2,2,2,2,0,1,1,0,0,0
567258111,567257073,68339896,59.396201899999994,24.6605965,2.2807467,-1.2959367,-2.6428638,-0.022485403,-0.0058500394,-0.06750712,-0.016989704,-0.042053223,-0.2992424,-0.25674707,0.037437953,0.037413422,0.009335578,-0.7978345,0.53354025,-1.9448911,-0.15540633,-0.01406361,28.05643,0.14554548,0.19240499,0.18855146,0.114958465,0.08377108,inf,inf,inf,inf,1,1,1,1,2,2,2,2,2,0,1,1,0,0,0
567268933,567267092,68339896,59.396201899999994,24.6605965,2.2804842,-1.2957346,-2.6447444,-0.022485403,-0.0058500394,-0.06750712,-0.0056603616,-0.04027289,-0.31165043,-0.26842898,0.037437953,0.037413422,0.009335578,1.5147957,1.3356086,0.26760927,-0.1556203,-0.01406361,28.05643,0.14742613,0.183548,0.18201639,0.10968853,0.0813571,inf,inf,inf,inf,1,1,1,1,2,2,2,2,2,0,1,1,0,0,0
567278403,567277111,68339896,59.396201899999994,24.6605965,2.280288,-1.2955385,-2.6467044,-0.022485403,-0.0058500394,-0.06750712,-0.0066307024,-0.04510451,-0.32255402,-0.27865556,0.037437953,0.037413422,0.009335578,-0.16359477,-0.35092062,-2.8988726,-0.15549906,-0.01406361,28.05643,0.14938617,0.18427376,0.18258338,0.11012451,0.08156454,inf,inf,inf,inf,1,1,1,1,2,2,2,2,2,0,1,1,0,0,0
567288374,567287130,68339896,59.396201899999994,24.6605965,2.280078,-1.2953773,-2.6489115,-0.022485403,-0.0058500394,-0.06750712,-0.009007854,-0.047390368,-0.342582,-0.29805368,0.037437953,0.037413422,0.009335578,-0.3794681,-1.1025321,-1.023495,-0.15547678,-0.01406361,28.05643,0.15159321,0.18500465,0.18315294,0.11057541,0.0817744,inf,inf,inf,inf,1,1,1,1,2,2,2,2,2,0,1,1,0,0,0
567298262,567297149,68339896,59.396201899999994,24.6605965,2.2798734,-1.2951748,-2.651204,-0.022485403,-0.0058500394,-0.06750712,-0.005617028,-0.045602396,-0.3377543,-0.2926416,0.037437953,0.037413422,0.009335578,0.1989688,-2.7012632,-0.13608383,-0.15510173,-0.01406361,28.05643,0.15388584,0.18574083,0.18372509,0.111034736,0.081982374,inf,inf,inf,inf,1,1,1,1,2,2,2,2,2,0,1,1,0,0,0
567308253,567307169,68339896,59.396201899999994,24.6605965,2.2797186,-1.2950431,-2.6536784,-0.022485403,-0.0058500394,-0.06750712,0.0020379624,-0.04534504,-0.36860612,-0.32295272,0.037437953,0.037413422,0.009335578,1.0598487,-0.34496242,-3.304547,-0.15480796,-0.01406361,28.05643,0.15636015,0.18648227,0.18429981,0.11148914,0.08219069,inf,inf,inf,inf,1,1,1,1,2,2,2,2,2,0,1,1,0,0,0
567318328,567317188,68339896,59.396201899999994,24.6605965,2.2796495,-1.294957,-2.6565223,-0.022485403,-0.0058500394,-0.06750712,0.0058936407,-0.04624923,-0.39922372,-0.35307166,0.037437953,0.037413422,0.009335578,-0.37840775,0.45918334,-1.7803589,-0.15468806,-0.01406361,28.05643,0.159204,0.18722901,0.1848771,0.11193192,0.08239961,inf,inf,inf,inf,1,1,1,1,2,2,2,2,2,0,1,1,0,0,0
567328395,567327207,68339896,59.396201899999994,24.6605965,2.2795596,-1.2948889,-2.6596103,-0.022485403,-0.0058500394,-0.06750712,0.0014955028,-0.038388908,-0.41842815,-0.37181783,0.037437953,0.037413422,0.009335578,-0.07065567,2.2516646,-2.3678098,-0.15468076,-0.01406361,28.05643,0.162292,0.18798096,0.18545696,0.11238256,0.08260838,inf,inf,inf,inf,1,1,1,1,2,2,2,2,2,0,1,1,0,0,0
567338319,567337226,68339896,59.396201899999994,24.6605965,2.279473,-1.2948136,-2.6630428,-0.022485403,-0.0058500394,-0.06750712,0.0044567464,-0.039056398,-0.42129484,-0.37449577,0.037437953,0.037413422,0.009335578,0.28908867,1.4031941,-0.8029643,-0.15442793,-0.01406361,28.05643,0.16572452,0.18873823,0.18577716,0.11288094,0.08275903,inf,inf,inf,inf,1,1,1,1,2,2,2,2,2,0,1,1,0,0,0
567348300,567347245,68339896,59.396201899999994,24.6605965,2.2794344,-1.2947946,-2.666661,-0.022485403,-0.0058500394,-0.06750712,0.010738055,-0.04738315,-0.45288903,-0.40592852,0.037437953,0.037413422,0.009335578,1.0722867,-0.02984623,-4.5208054,-0.15429452,-0.01406361,28.05643,0.16934276,0.189501,0.18636136,0.11327204,0.082967564,inf,inf,inf,inf,1,1,1,1,2,2,2,2,2,0,1,1,0,0,0
567359094,567357264,68339896,59.396201899999994,24.6605965,2.2794206,-1.294681,-2.6698534,-0.022485403,-0.0058500394,-0.06750712,0.016976282,-0.05538477,-0.49301916,-0.44506446,0.037437953,0.037413422,0.009335578,0.57113236,-0.84324175,-4.2254934,-0.1545151,-0.01406361,28.05643,0.17253518,0.18108884,0.18030097,0.1083127,0.08069535,inf,inf,inf,inf,1,1,1,1,2,2,2,2,2,0,1,1,0,0,0
567368703,567367283,68339896,59.396201899999994,24.6605965,2.2794209,-1.2946402,-2.6734936,-0.022485403,-0.0058500394,-0.06750712,0.016161427,-0.059966084,-0.532677,-0.48379058,0.037437953,0.037413422,0.009335578,0.8142409,-1.0108597,-4.51832,-0.15458882,-0.01406361,28.05643,0.17617536,0.18179752,0.18085986,0.10878169,0.08090425,inf,inf,inf,inf,1,1,1,1,2,2,2,2,2,0,1,1,0,0,0
567378680,567377303,68339896,59.396201899999994,24.6605965,2.2794387,-1.2946482,-2.6775393,-0.022485403,-0.0058500394,-0.06750712,0.013876289,-0.064486936,-0.55700636,-0.50724846,0.037437953,0.037413422,0.009335578,-0.5623752,-1.5677509,-1.507525,-0.15465526,-0.01406361,28.05643,0.18022108,0.1825115,0.18142132,0.10926695,0.08111285,inf,inf,inf,inf,1,1,1,1,2,2,2,2,2,0,1,1,0,0,0
567388413,567387322,68339896,59.396201899999994,24.6605965,2.2794204,-1.2946869,-2.6818566,-0.022485403,-0.0058500394,-0.06750712,0.0140997525,-0.06745853,-0.5780202,-0.5274487,0.037437953,0.037413422,0.009335578,0.91552395,-2.2087624,-1.6440127,-0.15456662,-0.01406361,28.05643,0.18453836,0.18323085,0.18198536,0.109753005,0.08132082,inf,inf,inf,inf,1,1,1,1,2,2,2,2,2,0,1,1,0,0,0
567398523,567397340,68339896,59.396201899999994,24.6605965,2.2794497,-1.2947913,-2.6865997,-0.022485403,-0.0058500394,-0.06750712,0.01861676,-0.07027026,-0.59655213,-0.54543275,0.037437953,0.037413422,0.009335578,0.43157676,-1.3632344,-2.2148173,-0.15458605,-0.01406361,28.05643,0.18928146,0.18395558,0.18230417,0.11019161,0.08147613,inf,inf,inf,inf,1,1,1,1,2,2,2,2,2,0,1,1,0,0,0
567408564,567407359,68339896,59.396201899999994,24.6605965,2.2795422,-1.2949511,-2.691623,-0.022485403,-0.0058500394,-0.06750712,0.025332183,-0.0758559,-0.6267027,-0.57508,0.037437953,0.037413422,0.009335578,0.624212,-1.747406,-3.7789395,-0.15467797,-0.01406361,28.05643,0.1943047,0.18468553,0.18287261,0.11072952,0.08168508,inf,inf,inf,inf,1,1,1,1,2,2,2,2,2,0,1,1,0,0,0
567418465,567417379,68339896,59.396201899999994,24.6605965,2.279628,-1.2951876,-2.6970441,-0.022485403,-0.0058500394,-0.06750712,0.015413384,-0.07413425,-0.6713291,-0.61924577,0.037437953,0.037413422,0.009335578,-1.3846953,0.53278434,-5.291565,-0.15488766,-0.01406361,28.05643,0.19972587,0.18542114,0.1834436,0.11126483,0.08189415,inf,inf,inf,inf,1,1,1,1,2,2,2,2,2,0,1,1,0,0,0
567428626,567427400,68339896,59.396201899999994,24.6605965,2.2796333,-1.2954496,-2.7029583,-0.022485403,-0.0058500394,-0.06750712,0.013272384,-0.07599462,-0.7174185,-0.6649158,0.037437953,0.037413422,0.009335578,0.2336735,0.5293211,-4.9201274,-0.15486456,-0.01406361,28.05643,0.20564008,0.18616241,0.18401718,0.111760885,0.08210217,inf,inf,inf,inf,1,1,1,1,2,2,2,2,2,0,1,1,0,0,0
567438424,567437417,68339896,59.396201899999994,24.6605965,2.2796528,-1.2957497,-2.7093067,-0.022485403,-0.0058500394,-0.06750712,0.016439391,-0.07695106,-0.7522353,-0.6993528,0.037437953,0.037413422,0.009335578,0.57412666,0.79347646,-3.6305988,-0.1546989,-0.01406361,28.05643,0.21198845,0.18690917,0.18459333,0.11220645,0.08231131,inf,inf,inf,inf,1,1,1,1,2,2,2,2,2,0,1,1,0,0,0
567448426,567447438,68339896,59.396201899999994,24.6605965,2.2796888,-1.2960947,-2.716043,-0.022485403,-0.0058500394,-0.06750712,0.018838318,-0.08075719,-0.7928048,-0.73958045,0.037437953,0.037413422,0.009335578,1.1080183,0.60538113,-5.015761,-0.15446416,-0.01406361,28.05643,0.21872473,0.18766122,0.18517207,0.11275192,0.082521185,inf,inf,inf,inf,1,1,1,1,2,2,2,2,2,0,1,1,0,0,0
567458470,567457457,68339896,59.396201899999994,24.6605965,2.2797718,-1.2965207,-2.723242,-0.022485403,-0.0058500394,-0.06750712,0.022167126,-0.08950558,-0.8368121,-0.7832824,0.037437953,0.037413422,0.009335578,0.6153866,0.2224899,-5.0093822,-0.1539351,-0.01406361,28.05643,0.22592378,0.18841901,0.18575338,0.11333304,0.08273113,inf,inf,inf,inf,1,1,1,1,2,2,2,2,2,0,1,1,0,0,0
567468690,567467474,68339896,59.396201899999994,24.6605965,2.2798574,-1.2969892,-2.731118,-0.022485403,-0.0058500394,-0.06750712,0.018513048,-0.08620409,-0.8851043,-0.83150446,0.037437953,0.037413422,0.009335578,-0.10632198,1.3265547,-5.535673,-0.15344965,-0.01406361,28.05643,0.2337997,0.18918273,0.18607375,0.11392105,0.08288233,inf,inf,inf,inf,1,1,1,1,2,2,2,2,2,0,1,1,0,0,0
567479894,567477493,68339896,59.396201899999994,24.6605965,2.2798805,-1.2970855,-2.7384114,-0.022485403,-0.0058500394,-0.06750712,0.010884716,-0.093379706,-0.9192806,-0.86451197,0.037437953,0.037413422,0.009335578,-0.5637014,-1.0642002,-2.5171096,-0.15274122,-0.01406361,28.05643,0.24109316,0.18079604,0.18004233,0.10890642,0.08062093,inf,inf,inf,inf,1,1,1,1,2,2,2,2,2,0,1,1,0,0,0
567488580,567487512,68339896,59.396201899999994,24.6605965,2.279862,-1.2972642,-2.7460067,-0.022485403,-0.0058500394,-0.06750712,0.007734019,-0.09441118,-0.9407216,-0.88485694,0.037437953,0.037413422,0.009335578,-0.52359265,-0.08644157,-1.7790697,-0.15217684,-0.01406361,28.05643,0.24868846,0.18150611,0.18060021,0.10942431,0.08082966,inf,inf,inf,inf,1,1,1,1,2,2,2,2,2,0,1,1,0,0,0
567498738,567497531,68339896,59.396201899999994,24.6605965,2.2798533,-1.2974547,-2.7539067,-0.022485403,-0.0058500394,-0.06750712,0.011495962,-0.09336766,-0.9696823,-0.91279167,0.037437953,0.037413422,0.009335578,0.2235884,-0.27167043,-3.3659377,-0.1515678,-0.01406361,28.05643,0.25658846,0.18222173,0.18116069,0.10991725,0.08103858,inf,inf,inf,inf,1,1,1,1,2,2,2,2,2,0,1,1,0,0,0
567508658,567507549,68339896,59.396201899999994,24.6605965,2.2798653,-1.2976544,-2.7621768,-0.022485403,-0.0058500394,-0.06750712,0.008559963,-0.091559656,-1.0037372,-0.94588816,0.037437953,0.037413422,0.009335578,-1.0733645,-0.44498044,-3.0624478,-0.1509901,-0.01406361,28.05643,0.26485848,0.18294281,0.18172373,0.11047616,0.08124822,inf,inf,inf,inf,1,1,1,1,2,2,2,2,2,0,1,1,0,0,0
567518656,567517569,68339896,59.396201899999994,24.6605965,2.2798624,-1.297891,-2.77093,-0.022485403,-0.0058500394,-0.06750712,0.009201573,-0.09362647,-1.0512427,-0.9925002,0.037437953,0.037413422,0.009335578,-0.1060448,-0.51362926,-4.260789,-0.15050472,-0.01406361,28.05643,0.27361178,0.18366966,0.18228936,0.11106031,0.081455804,inf,inf,inf,inf,1,1,1,1,2,2,2,2,2,0,1,1,0,0,0
567528734,567527598,68339896,59.396201899999994,24.6605965,2.2799234,-1.298214,-2.7804575,-0.022485403,-0.0058500394,-0.06750712,0.0129815275,-0.09656807,-1.0884494,-1.0291715,0.037437953,0.037413422,0.009335578,-1.3394305,0.8983148,-2.8060071,-0.15002283,-0.01406361,28.05643,0.28313923,0.1844024,0.1826085,0.1116727,0.081610724,inf,inf,inf,inf,1,1,1,1,2,2,2,2,2,0,1,1,0,0,0
567538789,567537606,68339896,59.396201899999994,24.6605965,2.2799504,-1.2985637,-2.7903025,-0.022485403,-0.0058500394,-0.06750712,0.007913933,-0.09443615,-1.1165224,-1.0567564,0.037437953,0.037413422,0.009335578,-0.7296503,1.0503584,-2.8560731,-0.14969082,-0.01406361,28.05643,0.29298425,0.1851412,0.1831785,0.112234585,0.08182001,inf,inf,inf,inf,1,1,1,1,2,2,2,2,2,0,1,1,0,0,0
567549026,567547625,68339896,59.396201899999994,24.6605965,2.2799509,-1.2989308,-2.8004487,-0.022485403,-0.0058500394,-0.06750712,0.003038601,-0.091195546,-1.139835,-1.0796261,0.037437953,0.037413422,0.009335578,-1.5312333,1.9321572,-2.0687993,-0.14932245,-0.01406361,28.05643,0.3031304,0.18588583,0.18375108,0.11282783,0.08202954,inf,inf,inf,inf,1,1,1,1,2,2,2,2,2,0,1,1,0,0,0
567558713,567557644,68339896,59.396201899999994,24.6605965,2.2799144,-1.2992563,-2.810785,-0.022485403,-0.0058500394,-0.06750712,0.0053815986,-0.086538054,-1.1521784,-1.0915703,0.037437953,0.037413422,0.009335578,0.39567116,0.8055646,-1.6136819,-0.14881724,-0.01406361,28.05643,0.3134668,0.1866365,0.18432623,0.113435864,0.08223954,inf,inf,inf,inf,1,1,1,1,2,2,2,2,2,0,1,1,0,0,0
567569081,567567663,68339896,59.396201899999994,24.6605965,2.2799132,-1.2995659,-2.8212879,-0.022485403,-0.0058500394,-0.06750712,0.0063146716,-0.08447814,-1.1659102,-1.104945,0.037437953,0.037413422,0.009335578,-0.2911621,0.32940462,-1.6036197,-0.14831358,-0.01406361,28.05643,0.3239696,0.1873932,0.18490396,0.114059485,0.08244806,inf,inf,inf,inf,1,1,1,1,2,2,2,2,2,0,1,1,0,0,0
567578801,567577682,68339896,59.396201899999994,24.6605965,2.2799213,-1.2999005,-2.8320704,-0.022485403,-0.0058500394,-0.06750712,0.009071183,-0.094732076,-1.2007475,-1.1394653,0.037437953,0.037413422,0.009335578,0.45128837,-2.358726,-3.6581848,-0.1479861,-0.01406361,28.05643,0.33475208,0.18815611,0.18548429,0.11462708,0.08265692,inf,inf,inf,inf,1,1,1,1,2,2,2,2,2,0,1,1,0,0,0
567588846,567587701,68339896,59.396201899999994,24.6605965,2.2799163,-1.3002803,-2.8432183,-0.022485403,-0.0058500394,-0.06750712,0.0013489937,-0.093145624,-1.2239934,-1.162433,0.037437953,0.037413422,0.009335578,-0.86979717,-1.7203668,-1.2290286,-0.14780396,-0.01406361,28.05643,0.34590006,0.18892498,0.18606718,0.11515124,0.08286594,inf,inf,inf,inf,1,1,1,1,2,2,2,2,2,0,1,1,0,0,0
567598912,567597722,68339896,59.396201899999994,24.6605965,2.2798586,-1.3006333,-2.8548696,-0.022485403,-0.0058500394,-0.06750712,-0.00046593952,-0.08990165,-1.2328348,-1.1713555,0.037437953,0.037413422,0.009335578,-0.036295608,-2.0277274,-0.36844945,-0.14742947,-0.01406361,28.05643,0.35755134,0.18969963,0.18638779,0.11570134,0.08301692,inf,inf,inf,inf,1,1,1,1,2,2,2,2,2,0,1,1,0,0,0
567609586,567607739,68339896,59.396201899999994,24.6605965,2.279491,-1.3006525,-2.8651686,-0.022485403,-0.0058500394,-0.06750712,0.0051398375,-0.08647099,-1.2366815,-1.1737999,0.037437953,0.037413422,0.009335578,0.7501641,-0.9647838,-0.6499735,-0.14705178,-0.01406361,28.05643,0.3678503,0.18119368,0.18032363,0.110529386,0.08074178,inf,inf,inf,inf,1,1,1,1,2,2,2,2,2,0,1,1,0,0,0
567619097,567617758,68339896,59.396201899999994,24.6605965,2.2791822,-1.3007084,-2.8755672,-0.022485403,-0.0058500394,-0.06750712,0.0068390346,-0.08346486,-1.2412009,-1.1770031,0.037437953,0.037413422,0.009335578,-0.2450302,0.6663758,-0.45388177,-0.14673245,-0.01406361,28.05643,0.37824893,0.18191262,0.18088293,0.111136645,0.08095067,inf,inf,inf,inf,1,1,1,1,2,2,2,2,2,0,1,1,0,0,0
567628854,567627777,68339896,59.396201899999994,24.6605965,2.278857,-1.3007818,-2.8860974,-0.022485403,-0.0058500394,-0.06750712,0.0029271834,-0.08070012,-1.249415,-1.1839837,0.037437953,0.037413422,0.009335578,-0.0023398558,1.2156266,-0.70762366,-0.14636579,-0.01406361,28.05643,0.38877916,0.1826376,0.18144481,0.11170844,0.08116005,inf,inf,inf,inf,1,1,1,1,2,2,2,2,2,0,1,1,0,0,0
567639139,567637796,68339896,59.396201899999994,24.6605965,2.2785444,-1.3008461,-2.8967636,-0.022485403,-0.0058500394,-0.06750712,0.0072904816,-0.07851459,-1.2529563,-1.1863713,0.037437953,0.037413422,0.009335578,0.8501659,0.56124413,0.8873088,-0.14592963,-0.01406361,28.05643,0.3994453,0.18336849,0.18200926,0.11225065,0.081368394,inf,inf,inf,inf,1,1,1,1,2,2,2,2,2,0,1,1,0,0,0
567648945,567647815,68339896,59.396201899999994,24.6605965,2.2782917,-1.300929,-2.9075127,-0.022485403,-0.0058500394,-0.06750712,0.008617783,-0.0774023,-1.2597536,-1.1920917,0.037437953,0.037413422,0.009335578,-0.19440608,0.83426845,-0.74992514,-0.14541696,-0.01406361,28.05643,0.4101944,0.18410519,0.1825763,0.112766124,0.08157663,inf,inf,inf,inf,1,1,1,1,2,2,2,2,2,0,1,1,0,0,0
567659026,567657834,68339896,59.396201899999994,24.6605965,2.2780294,-1.3010358,-2.91855,-0.022485403,-0.0058500394,-0.06750712,0.0051994165,-0.08302047,-1.2540151,-1.1855712,0.037437953,0.037413422,0.009335578,-0.37347096,-0.6505261,1.1605183,-0.1450664,-0.01406361,28.05643,0.42123175,0.1848476,0.18289568,0.11325826,0.08173161,inf,inf,inf,inf,1,1,1,1,2,2,2,2,2,0,1,1,0,0,0
567669098,567667853,68339896,59.396201899999994,24.6605965,2.2777734,-1.3011357,-2.9295752,-0.022485403,-0.0058500394,-0.06750712,0.010176501,-0.08111031,-1.2511896,-1.1820252,0.037437953,0.037413422,0.009335578,0.98358625,-1.4605794,-0.5472671,-0.14454347,-0.01406361,28.05643,0.43225694,0.18559563,0.18346708,0.11374992,0.08194063,inf,inf,inf,inf,1,1,1,1,2,2,2,2,2,0,1,1,0,0,0
567679027,567677872,68339896,59.396201899999994,24.6605965,2.277576,-1.3012687,-2.9407084,-0.022485403,-0.0058500394,-0.06750712,0.012186594,-0.07861414,-1.2627237,-1.1928979,0.037437953,0.037413422,0.009335578,-0.004144716,-0.28281114,-0.7056187,-0.14403528,-0.01406361,28.05643,0.44339013,0.18634932,0.18404105,0.114341564,0.082150884,inf,inf,inf,inf,1,1,1,1,2,2,2,2,2,0,1,1,0,0,0
567688989,567687891,68339896,59.396201899999994,24.6605965,2.277367,-1.3014512,-2.9519172,-0.022485403,-0.0058500394,-0.06750712,0.008366664,-0.07471057,-1.2541296,-1.1836994,0.037437953,0.037413422,0.009335578,-0.17359903,1.8972998,2.537466,-0.14363627,-0.01406361,28.05643,0.4545989,0.18710908,0.18461762,0.11486966,0.08235902,inf,inf,inf,inf,1,1,1,1,2,2,2,2,2,0,1,1,0,0,0
567699045,567697910,68339896,59.396201899999994,24.6605965,2.2771664,-1.3016088,-2.9629972,-0.022485403,-0.0058500394,-0.06750712,0.009632599,-0.07299399,-1.2393924,-1.1684123,0.037437953,0.037413422,0.009335578,-0.043144044,0.74762607,0.92697006,-0.14317806,-0.01406361,28.05643,0.46567893,0.18787467,0.18519677,0.11535039,0.08256801,inf,inf,inf,inf,1,1,1,1,2,2,2,2,2,0,1,1,0,0,0
567709275,567707928,68339896,59.396201899999994,24.6605965,2.2769895,-1.3017972,-2.9741497,-0.022485403,-0.0058500394,-0.06750712,0.011375041,-0.07997188,-1.2550128,-1.1835355,0.037437953,0.037413422,0.009335578,0.19266544,-0.92458326,-1.394744,-0.14266193,-0.01406361,28.05643,0.47683144,0.18864591,0.1857785,0.11581455,0.08277777,inf,inf,inf,inf,1,1,1,1,2,2,2,2,2,0,1,1,0,0,0
567718980,567717947,68339896,59.396201899999994,24.6605965,2.276828,-1.3020157,-2.985341,-0.022485403,-0.0058500394,-0.06750712,0.008415673,-0.07735336,-1.235831,-1.1639072,0.037437953,0.037413422,0.009335578,-0.6625173,-0.40296686,2.2088535,-0.1421769,-0.01406361,28.05643,0.4880228,0.18942273,0.18636279,0.1162908,0.082987234,inf,inf,inf,inf,1,1,1,1,2,2,2,2,2,0,1,1,0,0,0
567729313,567727966,68339896,59.396201899999994,24.6605965,2.2766724,-1.3021986,-2.9965637,-0.022485403,-0.0058500394,-0.06750712,0.013106423,-0.075428315,-1.2359086,-1.1637372,0.037437953,0.037413422,0.009335578,0.41123477,-1.5773326,-1.8933818,-0.14158678,-0.01406361,28.05643,0.4992454,0.19020517,0.18668355,0.11675982,0.08313717,inf,inf,inf,inf,1,1,1,1,2,2,2,2,2,0,1,1,0,0,0
567739714,567737985,68339896,59.396201899999994,24.6605965,2.276578,-1.3024737,-3.0067573,-0.022485403,-0.0058500394,-0.06750712,0.012317294,-0.07329075,-1.2434149,-1.1698505,0.037437953,0.037413422,0.009335578,-0.23414423,0.3984781,-0.95064986,-0.14108391,-0.01406361,28.05643,0.509439,0.18160321,0.18058868,0.11135402,0.08085026,inf,inf,inf,inf,1,1,1,1,2,2,2,2,2,0,1,1,0,0,0
567749378,567748004,68339896,59.396201899999994,24.6605965,2.2764757,-1.3027548,-3.0169172,-0.022485403,-0.0058500394,-0.06750712,0.013482378,-0.07223212,-1.2140101,-1.1391429,0.037437953,0.037413422,0.009335578,0.5876139,0.68871105,2.8498302,-0.14069286,-0.01406361,28.05643,0.51959896,0.18232785,0.18114923,0.11182402,0.08105908,inf,inf,inf,inf,1,1,1,1,2,2,2,2,2,0,1,1,0,0,0
567759155,567758023,68339896,59.396201899999994,24.6605965,2.2763865,-1.3030361,-3.027003,-0.022485403,-0.0058500394,-0.06750712,0.009983587,-0.07211249,-1.2204239,-1.1443405,0.037437953,0.037413422,0.009335578,-0.57755923,0.1614647,-1.7806646,-0.14041416,-0.01406361,28.05643,0.5296848,0.18305802,0.18171237,0.11224434,0.08126771,inf,inf,inf,inf,1,1,1,1,2,2,2,2,2,0,1,1,0,0,0
567769220,567768042,68339896,59.396201899999994,24.6605965,2.2763028,-1.3033199,-3.0372238,-0.022485403,-0.0058500394,-0.06750712,0.013866056,-0.07294224,-1.2184969,-1.1412807,0.037437953,0.037413422,0.009335578,0.31253502,-0.42628318,0.45939112,-0.1399061,-0.01406361,28.05643,0.53990555,0.18379349,0.18227808,0.11267372,0.08147715,inf,inf,inf,inf,1,1,1,1,2,2,2,2,2,0,1,1,0,0,0
567779245,567778061,68339896,59.396201899999994,24.6605965,2.2762578,-1.3036557,-3.0473847,-0.022485403,-0.0058500394,-0.06750712,0.011991444,-0.070033714,-1.2061538,-1.127885,0.037437953,0.037413422,0.009335578,-1.1340588,1.2829429,0.2042407,-0.13950802,-0.01406361,28.05643,0.5500665,0.18453433,0.18284637,0.113148555,0.08168613,inf,inf,inf,inf,1,1,1,1,2,2,2,2,2,0,1,1,0,0,0
567789505,567788080,68339896,59.396201899999994,24.6605965,2.276194,-1.3039584,-3.0576549,-0.022485403,-0.0058500394,-0.06750712,0.014951595,-0.070735365,-1.2043394,-1.1251993,0.037437953,0.037413422,0.009335578,0.70132643,-0.87808144,0.090752065,-0.13912924,-0.01406361,28.05643,0.5603366,0.18528073,0.18316588,0.11355033,0.08183981,inf,inf,inf,inf,1,1,1,1,2,2,2,2,2,0,1,1,0,0,0
567799223,567798100,68339896,59.396201899999994,24.6605965,2.2761867,-1.3042935,-3.0679712,-0.022485403,-0.0058500394,-0.06750712,0.01908923,-0.07440228,-1.2017242,-1.1217825,0.037437953,0.037413422,0.009335578,0.23694915,-1.2569208,0.4563466,-0.13898489,-0.01406361,28.05643,0.57065296,0.18603237,0.18373854,0.11393578,0.082049124,inf,inf,inf,inf,1,1,1,1,2,2,2,2,2,0,1,1,0,0,0
567809445,567808118,68339896,59.396201899999994,24.6605965,2.2761467,-1.3046107,-3.0783286,-0.022485403,-0.0058500394,-0.06750712,0.013464296,-0.06829361,-1.1964216,-1.1157457,0.037437953,0.037413422,0.009335578,0.35401493,-0.58741033,1.5158277,-0.13857186,-0.01406361,28.05643,0.58101034,0.1867892,0.18431379,0.11444992,0.08225919,inf,inf,inf,inf,1,1,1,1,2,2,2,2,2,0,1,1,0,0,0
567819148,567818137,68339896,59.396201899999994,24.6605965,2.276159,-1.3049641,-3.0886855,-0.022485403,-0.0058500394,-0.06750712,0.022812184,-0.06433873,-1.1959938,-1.1146481,0.037437953,0.037413422,0.009335578,0.67953926,2.2033381,-0.1493942,-0.138182,-0.01406361,28.05643,0.59136724,0.1875518,0.18489161,0.11481526,0.082467906,inf,inf,inf,inf,1,1,1,1,2,2,2,2,2,0,1,1,0,0,0
567829352,567828156,68339896,59.396201899999994,24.6605965,2.276181,-1.3053173,-3.099117,-0.022485403,-0.0058500394,-0.06750712,0.015028675,-0.060904767,-1.2018203,-1.119867,0.037437953,0.037413422,0.009335578,-0.943194,2.473812,0.03669632,-0.13765335,-0.01406361,28.05643,0.6017988,0.18831949,0.18547201,0.115265064,0.0826779,inf,inf,inf,inf,1,1,1,1,2,2,2,2,2,0,1,1,0,0,0
567839267,567838175,68339896,59.396201899999994,24.6605965,2.2761788,-1.3056741,-3.1095617,-0.022485403,-0.0058500394,-0.06750712,0.020601848,-0.06820353,-1.1900294,-1.1075282,0.037437953,0.037413422,0.009335578,1.3484039,-0.26675493,1.622554,-0.13698445,-0.01406361,28.05643,0.6122434,0.18909267,0.186055,0.11573654,0.08288713,inf,inf,inf,inf,1,1,1,1,2,2,2,2,2,0,1,1,0,0,0
567849420,567848193,68339896,59.396201899999994,24.6605965,2.2762475,-1.306044,-3.1199994,-0.022485403,-0.0058500394,-0.06750712,0.022168444,-0.06788336,-1.1964529,-1.1134613,0.037437953,0.037413422,0.009335578,-0.14926277,-0.9705732,-1.2718184,-0.13665867,-0.01406361,28.05643,0.62268114,0.18987143,0.18664056,0.11608467,0.08309686,inf,inf,inf,inf,1,1,1,1,2,2,2,2,2,0,1,1,0,0,0
567860241,567858212,68339896,59.396201899999994,24.6605965,2.2758021,-1.305817,-3.1293454,-0.022485403,-0.0058500394,-0.06750712,0.01931698,-0.06692165,-1.2019699,-1.117206,0.037437953,0.037413422,0.009335578,0.16985121,-0.70488715,0.63632077,-0.13621554,-0.01406361,28.05643,0.63202715,0.18133025,0.18031083,0.11077843,0.080761455,inf,inf,inf,inf,1,1,1,1,2,2,2,2,2,0,1,1,0,0,0
567869310,567868232,68339896,59.396201899999994,24.6605965,2.2754028,-1.3056203,-3.1386871,-0.022485403,-0.0058500394,-0.06750712,0.0275428,-0.06654784,-1.1812768,-1.0948516,0.037437953,0.037413422,0.009335578,0.9708283,-0.021755464,2.8222878,-0.13568927,-0.01406361,28.05643,0.64136887,0.18205157,0.18087022,0.11121674,0.08097099,inf,inf,inf,inf,1,1,1,1,2,2,2,2,2,0,1,1,0,0,0
567879625,567878250,68339896,59.396201899999994,24.6605965,2.2750444,-1.3054439,-3.1480002,-0.022485403,-0.0058500394,-0.06750712,0.022526834,-0.06079237,-1.1917168,-1.1037374,0.037437953,0.037413422,0.009335578,-0.74711156,1.4240717,-2.2184877,-0.13519657,-0.01406361,28.05643,0.650682,0.18277825,0.18143217,0.111615665,0.081179656,inf,inf,inf,inf,1,1,1,1,2,2,2,2,2,0,1,1,0,0,0
567889328,567888269,68339896,59.396201899999994,24.6605965,2.2746487,-1.3052781,-3.1576219,-0.022485403,-0.0058500394,-0.06750712,0.019367537,-0.060055014,-1.2156242,-1.1261934,0.037437953,0.037413422,0.009335578,0.031704288,1.2200427,-0.88624525,-0.13449426,-0.01406361,28.05643,0.6603036,0.18351012,0.1819967,0.11204665,0.08138932,inf,inf,inf,inf,1,1,1,1,2,2,2,2,2,0,1,1,0,0,0
567899332,567898289,68339896,59.396201899999994,24.6605965,2.2743332,-1.3051448,-3.167213,-0.022485403,-0.0058500394,-0.06750712,0.03245918,-0.064722,-1.1756403,-1.0848573,0.037437953,0.037413422,0.009335578,1.334092,-0.25763163,4.318803,-0.13369234,-0.01406361,28.05643,0.6698947,0.18424731,0.18256381,0.11249567,0.081599176,inf,inf,inf,inf,1,1,1,1,2,2,2,2,2,0,1,1,0,0,0
567909331,567908308,68339896,59.396201899999994,24.6605965,2.2740788,-1.305026,-3.1766865,-0.022485403,-0.0058500394,-0.06750712,0.024223771,-0.06381827,-1.1886762,-1.0966364,0.037437953,0.037413422,0.009335578,-1.4452487,-1.0526348,-3.3482096,-0.13321705,-0.01406361,28.05643,0.67936826,0.18498991,0.1831335,0.11291141,0.08180708,inf,inf,inf,inf,1,1,1,1,2,2,2,2,2,0,1,1,0,0,0
567919701,567918326,68339896,59.396201899999994,24.6605965,2.2737672,-1.3049093,-3.186609,-0.022485403,-0.0058500394,-0.06750712,0.024908334,-0.05975823,-1.2139125,-1.1207886,0.037437953,0.037413422,0.009335578,0.89284694,-0.32780364,-0.73561877,-0.1326444,-0.01406361,28.05643,0.68929076,0.18573779,0.18345323,0.113351844,0.081962466,inf,inf,inf,inf,1,1,1,1,2,2,2,2,2,0,1,1,0,0,0
567929664,567928345,68339896,59.396201899999994,24.6605965,2.2735436,-1.3048289,-3.1965415,-0.022485403,-0.0058500394,-0.06750712,0.03414119,-0.058538053,-1.1834399,-1.0893167,0.037437953,0.037413422,0.009335578,0.71856934,1.0919019,3.7377567,-0.13218102,-0.01406361,28.05643,0.6992233,0.18649104,0.1840273,0.11380234,0.082170546,inf,inf,inf,inf,1,1,1,1,2,2,2,2,2,0,1,1,0,0,0
567939487,567938364,68339896,59.396201899999994,24.6605965,2.2733445,-1.3047544,-3.2063699,-0.022485403,-0.0058500394,-0.06750712,0.028923549,-0.054544073,-1.1936445,-1.0986037,0.037437953,0.037413422,0.009335578,-0.59371394,1.6357989,-1.9823589,-0.13185728,-0.01406361,28.05643,0.7090516,0.18724975,0.18460393,0.11420888,0.082381435,inf,inf,inf,inf,1,1,1,1,2,2,2,2,2,0,1,1,0,0,0
567949475,567948383,68339896,59.396201899999994,24.6605965,2.2731285,-1.3046951,-3.216468,-0.022485403,-0.0058500394,-0.06750712,0.032685246,-0.06056701,-1.2147412,-1.1188612,0.037437953,0.037413422,0.009335578,1.3481159,-0.15493971,-1.321704,-0.1314994,-0.01406361,28.05643,0.7191498,0.1880137,0.18518317,0.11467789,0.08259107,inf,inf,inf,inf,1,1,1,1,2,2,2,2,2,0,1,1,0,0,0
567959529,567958403,68339896,59.396201899999994,24.6605965,2.2730086,-1.3046722,-3.2266023,-0.022485403,-0.0058500394,-0.06750712,0.038124084,-0.064811155,-1.1952497,-1.0986059,0.037437953,0.037413422,0.009335578,0.13414307,-1.4204762,1.187008,-0.13116458,-0.01406361,28.05643,0.72928405,0.18878318,0.18576498,0.115145616,0.0828001,inf,inf,inf,inf,1,1,1,1,2,2,2,2,2,0,1,1,0,0,0
567969558,567968421,68339896,59.396201899999994,24.6605965,2.272883,-1.3046569,-3.2367096,-0.022485403,-0.0058500394,-0.06750712,0.030272625,-0.060284376,-1.197689,-1.1003541,0.037437953,0.037413422,0.009335578,-0.78577507,-0.92642736,-1.400449,-0.13075352,-0.01406361,28.05643,0.7393913,0.18955821,0.18634936,0.11551662,0.08301078,inf,inf,inf,inf,1,1,1,1,2,2,2,2,2,0,1,1,0,0,0
567980485,567978440,68339896,59.396201899999994,24.6605965,2.273435,-1.3048476,-3.2462897,-0.022485403,-0.0058500394,-0.06750712,0.036727153,-0.056538418,-1.203936,-1.1052749,0.037437953,0.037413422,0.009335578,0.546651,0.07474918,-0.4315174,-0.13043292,-0.01406361,28.05643,0.74897146,0.18107243,0.18028894,0.11028562,0.08073656,inf,inf,inf,inf,1,1,1,1,2,2,2,2,2,0,1,1,0,0,0
567989786,567988473,68339896,59.396201899999994,24.6605965,2.2740386,-1.3050516,-3.2560601,-0.022485403,-0.0058500394,-0.06750712,0.04033685,-0.054366432,-1.2030084,-1.1032212,0.037437953,0.037413422,0.009335578,0.012223858,0.84144956,-0.4362313,-0.1300472,-0.01406361,28.05643,0.75874186,0.18179084,0.18060707,0.11080065,0.08089358,inf,inf,inf,inf,1,1,1,1,2,2,2,2,2,0,1,1,0,0,0
567999501,567998478,68339896,59.396201899999994,24.6605965,2.274643,-1.3052753,-3.2658782,-0.022485403,-0.0058500394,-0.06750712,0.041044947,-0.054448735,-1.2004999,-1.099676,0.037437953,0.037413422,0.009335578,0.23012096,0.88171357,1.6400458,-0.12954493,-0.01406361,28.05643,0.76855993,0.18251492,0.18116795,0.111115545,0.0811051,inf,inf,inf,inf,1,1,1,1,2,2,2,2,2,0,1,1,0,0,0
568009536,568008503,68339896,59.396201899999994,24.6605965,2.2752736,-1.3055273,-3.2757156,-0.022485403,-0.0058500394,-0.06750712,0.045386832,-0.05558385,-1.190025,-1.0882504,0.037437953,0.037413422,0.009335578,0.6018911,0.9518686,1.4519721,-0.12916069,-0.01406361,28.05643,0.7783973,0.18324377,0.18173143,0.11160547,0.08131296,inf,inf,inf,inf,1,1,1,1,2,2,2,2,2,0,1,1,0,0,0
568019618,568018516,68339896,59.396201899999994,24.6605965,2.2759209,-1.3057773,-3.2855618,-0.022485403,-0.0058500394,-0.06750712,0.043615922,-0.05772383,-1.1979506,-1.0953081,0.037437953,0.037413422,0.009335578,-0.29686916,-0.37127522,-1.7585716,-0.12872599,-0.01406361,28.05643,0.78824353,0.18397819,0.1822975,0.11213382,0.081521966,inf,inf,inf,inf,1,1,1,1,2,2,2,2,2,0,1,1,0,0,0
568029685,568028539,68339896,59.396201899999994,24.6605965,2.2765515,-1.3060503,-3.2955837,-0.022485403,-0.0058500394,-0.06750712,0.044811763,-0.0617872,-1.2014991,-1.0980682,0.037437953,0.037413422,0.009335578,0.3675153,-1.2064441,0.067014724,-0.12824912,-0.01406361,28.05643,0.79826546,0.18471834,0.18286613,0.112471856,0.08173241,inf,inf,inf,inf,1,1,1,1,2,2,2,2,2,0,1,1,0,0,0
568039625,568038554,68339896,59.396201899999994,24.6605965,2.2772233,-1.3063465,-3.3056045,-0.022485403,-0.0058500394,-0.06750712,0.052284982,-0.062167566,-1.1899996,-1.0858568,0.037437953,0.037413422,0.009335578,0.6599801,-0.95750284,1.1499765,-0.12781115,-0.01406361,28.05643,0.8082862,0.1854634,0.18343735,0.11293945,0.08194067,inf,inf,inf,inf,1,1,1,1,2,2,2,2,2,0,1,1,0,0,0
568050024,568048573,68339896,59.396201899999994,24.6605965,2.2779222,-1.3066455,-3.3157067,-0.022485403,-0.0058500394,-0.06750712,0.05185772,-0.056864284,-1.1873688,-1.0826954,0.037437953,0.037413422,0.009335578,0.029120006,0.19152662,-0.2499064,-0.127272,-0.01406361,28.05643,0.81838846,0.18621393,0.18375736,0.113453545,0.08209583,inf,inf,inf,inf,1,1,1,1,2,2,2,2,2,0,1,1,0,0,0
568059835,568058592,68339896,59.396201899999994,24.6605965,2.2786086,-1.306955,-3.3259244,-0.022485403,-0.0058500394,-0.06750712,0.05247033,-0.05676117,-1.198475,-1.0933368,0.037437953,0.037413422,0.009335578,0.46899235,0.27476734,-0.32489777,-0.12644558,-0.01406361,28.05643,0.8286061,0.18697016,0.18433295,0.11384416,0.082306504,inf,inf,inf,inf,1,1,1,1,2,2,2,2,2,0,1,1,0,0,0
